%time,field.header.seq,field.header.stamp,field.header.frame_id,field.orientation.x,field.orientation.y,field.orientation.z,field.orientation.w,field.orientation_covariance0,field.orientation_covariance1,field.orientation_covariance2,field.orientation_covariance3,field.orientation_covariance4,field.orientation_covariance5,field.orientation_covariance6,field.orientation_covariance7,field.orientation_covariance8,field.angular_velocity.x,field.angular_velocity.y,field.angular_velocity.z,field.angular_velocity_covariance0,field.angular_velocity_covariance1,field.angular_velocity_covariance2,field.angular_velocity_covariance3,field.angular_velocity_covariance4,field.angular_velocity_covariance5,field.angular_velocity_covariance6,field.angular_velocity_covariance7,field.angular_velocity_covariance8,field.linear_acceleration.x,field.linear_acceleration.y,field.linear_acceleration.z,field.linear_acceleration_covariance0,field.linear_acceleration_covariance1,field.linear_acceleration_covariance2,field.linear_acceleration_covariance3,field.linear_acceleration_covariance4,field.linear_acceleration_covariance5,field.linear_acceleration_covariance6,field.linear_acceleration_covariance7,field.linear_acceleration_covariance8
1758875641027509520,82660,1758875640947017408,base_link,0.02081876756375207,0.01775048785814336,-0.03957226612275747,-0.9988421246634377,1.0,0.0,0.0,0.0,1.0,0.0,0.0,0.0,1.0,0.0005555683746933937,-0.0006102111656218768,-0.00132639124058187,1.2184696791468346e-07,0.0,0.0,0.0,1.2184696791468346e-07,0.0,0.0,0.0,1.2184696791468346e-07,0.33638882637023926,-0.41958501935005066,9.824347496032715,8.999999999999999e-08,0.0,0.0,0.0,8.999999999999999e-08,0.0,0.0,0.0,8.999999999999999e-08
1758875641027581776,82661,1758875640962017920,base_link,0.020822337533529845,0.01775695147248921,-0.039575384989547234,-0.9988417874886496,1.0,0.0,0.0,0.0,1.0,0.0,0.0,0.0,1.0,0.0010666173184290528,-0.0013258235994726422,-0.0012465403415262697,1.2184696791468346e-07,0.0,0.0,0.0,1.2184696791468346e-07,0.0,0.0,0.0,1.2184696791468346e-07,0.3105388581752777,-0.4371715784072864,9.807833671569824,8.999999999999999e-08,0.0,0.0,0.0,8.999999999999999e-08,0.0,0.0,0.0,8.999999999999999e-08
1758875641027591216,82662,1758875640969017920,base_link,0.020819191007870705,0.017753552065739007,-0.03955654534826296,-0.9988426725724683,1.0,0.0,0.0,0.0,1.0,0.0,0.0,0.0,1.0,-0.00017536338418722153,9.030662477016414e-05,-0.002846423303708434,1.2184696791468346e-07,0.0,0.0,0.0,1.2184696791468346e-07,0.0,0.0,0.0,1.2184696791468346e-07,0.3777191638946533,-0.4148384034633624,9.814427375793457,8.999999999999999e-08,0.0,0.0,0.0,8.999999999999999e-08,0.0,0.0,0.0,8.999999999999999e-08
1758875641027595504,82663,1758875640979017920,base_link,0.02081975636833081,0.017753663689033108,-0.039572434710151566,-0.9988420403697407,1.0,0.0,0.0,0.0,1.0,0.0,0.0,0.0,1.0,0.0010573355248197913,0.0019895855803042655,0.002151760738343,1.2184696791468346e-07,0.0,0.0,0.0,1.2184696791468346e-07,0.0,0.0,0.0,1.2184696791468346e-07,0.3210331201553345,-0.389409542083739,9.821045875549316,8.999999999999999e-08,0.0,0.0,0.0,8.999999999999999e-08,0.0,0.0,0.0,8.999999999999999e-08
1758875641027667152,82664,1758875640983017920,base_link,0.020821329631160377,0.017765933031761334,-0.039574668493122654,-0.998841661048104,1.0,0.0,0.0,0.0,1.0,0.0,0.0,0.0,1.0,-0.0012027132324874401,-0.0020256966818124056,-0.0011254509445279834,1.2184696791468346e-07,0.0,0.0,0.0,1.2184696791468346e-07,0.0,0.0,0.0,1.2184696791468346e-07,0.29488760232925415,-0.44103047251701233,9.7755765914917,8.999999999999999e-08,0.0,0.0,0.0,8.999999999999999e-08,0.0,0.0,0.0,8.999999999999999e-08
1758875641027678896,82665,1758875640998017920,base_link,0.020818698745850985,0.01774697155974299,-0.03956653415135997,-0.9988424618382258,1.0,0.0,0.0,0.0,1.0,0.0,0.0,0.0,1.0,-0.00044974195770919323,0.0008231601677834987,-0.000864942790940404,1.2184696791468346e-07,0.0,0.0,0.0,1.2184696791468346e-07,0.0,0.0,0.0,1.2184696791468346e-07,0.33783259987831116,-0.37113329768180725,9.784738540649414,8.999999999999999e-08,0.0,0.0,0.0,8.999999999999999e-08,0.0,0.0,0.0,8.999999999999999e-08
1758875641027692208,82666,1758875641013017920,base_link,0.020837657912963554,0.017764598491315908,-0.03956535403960165,-0.9988417874886496,1.0,0.0,0.0,0.0,1.0,0.0,0.0,0.0,1.0,-0.0013263756409287453,-0.0009064637124538422,0.00015579559840261947,1.2184696791468346e-07,0.0,0.0,0.0,1.2184696791468346e-07,0.0,0.0,0.0,1.2184696791468346e-07,0.3206256628036499,-0.4188839495182025,9.83802604675293,8.999999999999999e-08,0.0,0.0,0.0,8.999999999999999e-08,0.0,0.0,0.0,8.999999999999999e-08
1758875641027698960,82667,1758875641018017920,base_link,0.020839735456250116,0.017771861743330578,-0.039570285220877445,-0.998841408167013,1.0,0.0,0.0,0.0,1.0,0.0,0.0,0.0,1.0,-0.00040785479359328747,-0.0028689440805464983,-0.0014299598988145585,1.2184696791468346e-07,0.0,0.0,0.0,1.2184696791468346e-07,0.0,0.0,0.0,1.2184696791468346e-07,0.3476555049419403,-0.4466695785522449,9.797799110412598,8.999999999999999e-08,0.0,0.0,0.0,8.999999999999999e-08,0.0,0.0,0.0,8.999999999999999e-08
1758875641036811152,82668,1758875641028017920,base_link,0.020850026860548612,0.017774490982278696,-0.039595362595741465,-0.9988401859084062,1.0,0.0,0.0,0.0,1.0,0.0,0.0,0.0,1.0,-0.002438711002469063,-0.0006181802600622174,0.0027959102299064398,1.2184696791468346e-07,0.0,0.0,0.0,1.2184696791468346e-07,0.0,0.0,0.0,1.2184696791468346e-07,0.33874911069869995,-0.4495151937007892,9.793221473693848,8.999999999999999e-08,0.0,0.0,0.0,8.999999999999999e-08,0.0,0.0,0.0,8.999999999999999e-08
1758875641041748432,82669,1758875641033017920,base_link,0.020843527026254825,0.01777432371197367,-0.0395813698420358,-0.9988408602579824,1.0,0.0,0.0,0.0,1.0,0.0,0.0,0.0,1.0,-0.001784732099622488,-4.865042865276334e-05,0.00020952790509909391,1.2184696791468346e-07,0.0,0.0,0.0,1.2184696791468346e-07,0.0,0.0,0.0,1.2184696791468346e-07,0.33291181921958923,-0.46879369020461914,9.772241592407227,8.999999999999999e-08,0.0,0.0,0.0,8.999999999999999e-08,0.0,0.0,0.0,8.999999999999999e-08
1758875641053521456,82670,1758875641048017920,base_link,0.02085626047822505,0.017762970569292175,-0.03960008304277471,-0.9988400173210121,1.0,0.0,0.0,0.0,1.0,0.0,0.0,0.0,1.0,0.001374709652736783,0.0023887788411229853,0.0022865617647767063,1.2184696791468346e-07,0.0,0.0,0.0,1.2184696791468346e-07,0.0,0.0,0.0,1.2184696791468346e-07,0.3276948928833008,-0.4139193594455707,9.815218925476074,8.999999999999999e-08,0.0,0.0,0.0,8.999999999999999e-08,0.0,0.0,0.0,8.999999999999999e-08
1758875641068548944,82671,1758875641063017152,base_link,0.020848628276649784,0.01777147731797404,-0.03960046236441125,-0.9988400594678607,1.0,0.0,0.0,0.0,1.0,0.0,0.0,0.0,1.0,-0.0007713900413364172,-0.00031976448372006427,-0.0008898309897631407,1.2184696791468346e-07,0.0,0.0,0.0,1.2184696791468346e-07,0.0,0.0,0.0,1.2184696791468346e-07,0.35042405128479004,-0.40664294362068054,9.83122444152832,8.999999999999999e-08,0.0,0.0,0.0,8.999999999999999e-08,0.0,0.0,0.0,8.999999999999999e-08
1758875641080572432,82672,1758875641073017152,base_link,0.0208493864260146,0.017767647717023997,-0.03960231682574579,-0.9988399751741636,1.0,0.0,0.0,0.0,1.0,0.0,0.0,0.0,1.0,-0.0004088948480784893,0.00012956024147570147,0.0011681406758725643,1.2184696791468346e-07,0.0,0.0,0.0,1.2184696791468346e-07,0.0,0.0,0.0,1.2184696791468346e-07,0.31447988748550415,-0.43707141280174133,9.786113739013672,8.999999999999999e-08,0.0,0.0,0.0,8.999999999999999e-08,0.0,0.0,0.0,8.999999999999999e-08
1758875641087569776,82673,1758875641078017152,base_link,0.020849350535338918,0.017763237115181782,-0.03960594145471763,-0.9988398908804665,1.0,0.0,0.0,0.0,1.0,0.0,0.0,0.0,1.0,-0.0005940166302025318,-0.0002369403373450041,-0.00020882545504719016,1.2184696791468346e-07,0.0,0.0,0.0,1.2184696791468346e-07,0.0,0.0,0.0,1.2184696791468346e-07,0.32458561658859253,-0.44475623965263245,9.819501876831055,8.999999999999999e-08,0.0,0.0,0.0,8.999999999999999e-08,0.0,0.0,0.0,8.999999999999999e-08
1758875641096932400,82674,1758875641093017152,base_link,0.02085789070515456,0.017775849394962538,-0.03961276924417642,-0.9988393008245875,1.0,0.0,0.0,0.0,1.0,0.0,0.0,0.0,1.0,-0.0017174044623970985,-0.0014040616806596515,0.001488726353272796,1.2184696791468346e-07,0.0,0.0,0.0,1.2184696791468346e-07,0.0,0.0,0.0,1.2184696791468346e-07,0.3331421911716461,-0.3863517343997943,9.77702808380127,8.999999999999999e-08,0.0,0.0,0.0,8.999999999999999e-08,0.0,0.0,0.0,8.999999999999999e-08
1758875641107683600,82675,1758875641102017152,base_link,0.02085483357691238,0.017768701717509022,-0.03960855455932532,-0.9988396379993755,1.0,0.0,0.0,0.0,1.0,0.0,0.0,0.0,1.0,-0.0025791493244469166,0.0008025814313441517,0.0018409010954201221,1.2184696791468346e-07,0.0,0.0,0.0,1.2184696791468346e-07,0.0,0.0,0.0,1.2184696791468346e-07,0.30338773131370544,-0.42745667695999023,9.79295825958252,8.999999999999999e-08,0.0,0.0,0.0,8.999999999999999e-08,0.0,0.0,0.0,8.999999999999999e-08
1758875641109465104,82676,1758875641103017152,base_link,0.020871729030173057,0.017773991311633267,-0.039611083370236035,-0.9988390479434964,1.0,0.0,0.0,0.0,1.0,0.0,0.0,0.0,1.0,-0.0020371684804558754,-0.0003260308876633644,0.0001326135825365782,1.2184696791468346e-07,0.0,0.0,0.0,1.2184696791468346e-07,0.0,0.0,0.0,1.2184696791468346e-07,0.3006907105445862,-0.444696784019469,9.7850923538208,8.999999999999999e-08,0.0,0.0,0.0,8.999999999999999e-08,0.0,0.0,0.0,8.999999999999999e-08
1758875641115698320,82677,1758875641108017152,base_link,0.020863887905352634,0.017773566385789488,-0.039595489036287,-0.9988398908804667,1.0,0.0,0.0,0.0,1.0,0.0,0.0,0.0,1.0,0.0021148142404854298,5.4313801228999956e-05,-0.0010988607537001371,1.2184696791468346e-07,0.0,0.0,0.0,1.2184696791468346e-07,0.0,0.0,0.0,1.2184696791468346e-07,0.32491186261177063,-0.432132303714751,9.775164604187012,8.999999999999999e-08,0.0,0.0,0.0,8.999999999999999e-08,0.0,0.0,0.0,8.999999999999999e-08
1758875641122621296,82678,1758875641118017152,base_link,0.02086631513577293,0.017771318279475364,-0.039594898980407786,-0.9988398908804665,1.0,0.0,0.0,0.0,1.0,0.0,0.0,0.0,1.0,-0.00034465640783309937,-0.0005827536806464196,-0.0004613278433680534,1.2184696791468346e-07,0.0,0.0,0.0,1.2184696791468346e-07,0.0,0.0,0.0,1.2184696791468346e-07,0.33304083347320557,-0.3805149495601642,9.82046127319336,8.999999999999999e-08,0.0,0.0,0.0,8.999999999999999e-08,0.0,0.0,0.0,8.999999999999999e-08
1758875641136556656,82679,1758875641127017152,base_link,0.02087166268181388,0.017762588448841418,-0.039580864079853666,-0.9988405230831943,1.0,0.0,0.0,0.0,1.0,0.0,0.0,0.0,1.0,5.12187834829092e-05,-6.384938023984469e-05,-0.003033117623999715,1.2184696791468346e-07,0.0,0.0,0.0,1.2184696791468346e-07,0.0,0.0,0.0,1.2184696791468346e-07,0.32744500041007996,-0.419445604085921,9.804682731628418,8.999999999999999e-08,0.0,0.0,0.0,8.999999999999999e-08,0.0,0.0,0.0,8.999999999999999e-08
1758875641145540176,82680,1758875641138017152,base_link,0.020862210263218547,0.01776374847499223,-0.03958933559640439,-0.9988403123489518,1.0,0.0,0.0,0.0,1.0,0.0,0.0,0.0,1.0,0.00023751775734126568,-0.0006306711584329603,0.0014868779107928276,1.2184696791468346e-07,0.0,0.0,0.0,1.2184696791468346e-07,0.0,0.0,0.0,1.2184696791468346e-07,0.36977145075798035,-0.3975665271282184,9.769307136535645,8.999999999999999e-08,0.0,0.0,0.0,8.999999999999999e-08,0.0,0.0,0.0,8.999999999999999e-08
1758875641152263792,82681,1758875641145017152,base_link,0.020872124650786226,0.01777460984956239,-0.039601853210412166,-0.998839427265133,1.0,0.0,0.0,0.0,1.0,0.0,0.0,0.0,1.0,-0.00048544746823608875,-0.0031079340260475874,0.0004132424364797775,1.2184696791468346e-07,0.0,0.0,0.0,1.2184696791468346e-07,0.0,0.0,0.0,1.2184696791468346e-07,0.31512925028800964,-0.41783168911933777,9.776199340820312,8.999999999999999e-08,0.0,0.0,0.0,8.999999999999999e-08,0.0,0.0,0.0,8.999999999999999e-08
1758875641160961296,82682,1758875641151016640,base_link,0.020878869957545367,0.017788424302342468,-0.03959249661004266,-0.998839427265133,1.0,0.0,0.0,0.0,1.0,0.0,0.0,0.0,1.0,-0.0021020728163421154,-0.0011159784626215696,-0.0007494487799704074,1.2184696791468346e-07,0.0,0.0,0.0,1.2184696791468346e-07,0.0,0.0,0.0,1.2184696791468346e-07,0.3471828103065491,-0.4620690345764148,9.779183387756348,8.999999999999999e-08,0.0,0.0,0.0,8.999999999999999e-08,0.0,0.0,0.0,8.999999999999999e-08
1758875641166527376,82683,1758875641160016640,base_link,0.020885460670981258,0.01778384083256691,-0.03958524735209881,-0.998839680146224,1.0,0.0,0.0,0.0,1.0,0.0,0.0,0.0,1.0,0.000758129172027111,0.0007271969225257638,0.002760272240266204,1.2184696791468346e-07,0.0,0.0,0.0,1.2184696791468346e-07,0.0,0.0,0.0,1.2184696791468346e-07,0.34419339895248413,-0.39015373587608215,9.814903259277344,8.999999999999999e-08,0.0,0.0,0.0,8.999999999999999e-08,0.0,0.0,0.0,8.999999999999999e-08
1758875641174658768,82684,1758875641165016640,base_link,0.02087211180916832,0.017776716862715678,-0.039612937831570466,-0.9988389636497994,1.0,0.0,0.0,0.0,1.0,0.0,0.0,0.0,1.0,0.00019035767763853073,0.00041592284105718163,0.002045632107183337,1.2184696791468346e-07,0.0,0.0,0.0,1.2184696791468346e-07,0.0,0.0,0.0,1.2184696791468346e-07,0.31115245819091797,-0.4109501540660846,9.787397384643555,8.999999999999999e-08,0.0,0.0,0.0,8.999999999999999e-08,0.0,0.0,0.0,8.999999999999999e-08
1758875641181482320,82685,1758875641175016640,base_link,0.02085904266413515,0.017775279589327005,-0.039598144287743144,-0.9988398487336181,1.0,0.0,0.0,0.0,1.0,0.0,0.0,0.0,1.0,0.005175289697945118,0.0007365595083683725,-0.0036918085534125566,1.2184696791468346e-07,0.0,0.0,0.0,1.2184696791468346e-07,0.0,0.0,0.0,1.2184696791468346e-07,0.32705217599868774,-0.414157450199126,9.748533248901367,8.999999999999999e-08,0.0,0.0,0.0,8.999999999999999e-08,0.0,0.0,0.0,8.999999999999999e-08
1758875641188449776,82686,1758875641180016640,base_link,0.020861975821373703,0.017772320090308134,-0.039596627001196795,-0.9988399330273151,1.0,0.0,0.0,0.0,1.0,0.0,0.0,0.0,1.0,-0.000531521625816822,-0.002255996456369758,-0.002314515179023146,1.2184696791468346e-07,0.0,0.0,0.0,1.2184696791468346e-07,0.0,0.0,0.0,1.2184696791468346e-07,0.3442977964878082,-0.3863290250301349,9.789755821228027,8.999999999999999e-08,0.0,0.0,0.0,8.999999999999999e-08,0.0,0.0,0.0,8.999999999999999e-08
1758875641195398672,82687,1758875641190016640,base_link,0.02085778714903068,0.017787501187578405,-0.039594393218225714,-0.9988398065867696,1.0,0.0,0.0,0.0,1.0,0.0,0.0,0.0,1.0,-4.130718298256397e-05,-0.0014142163563519716,0.00028596178162843005,1.2184696791468346e-07,0.0,0.0,0.0,1.2184696791468346e-07,0.0,0.0,0.0,1.2184696791468346e-07,0.3313700258731842,-0.4411121308803546,9.773694038391113,8.999999999999999e-08,0.0,0.0,0.0,8.999999999999999e-08,0.0,0.0,0.0,8.999999999999999e-08
1758875641202808560,82688,1758875641195016640,base_link,0.020856804600624772,0.017784882814614666,-0.0395979757003491,-0.998839680146224,1.0,0.0,0.0,0.0,1.0,0.0,0.0,0.0,1.0,-0.00047887349501252174,-0.00020303623750805887,-0.0025980831123888493,1.2184696791468346e-07,0.0,0.0,0.0,1.2184696791468346e-07,0.0,0.0,0.0,1.2184696791468346e-07,0.34473589062690735,-0.4489356279373157,9.791179656982422,8.999999999999999e-08,0.0,0.0,0.0,8.999999999999999e-08,0.0,0.0,0.0,8.999999999999999e-08
1758875641209643248,82689,1758875641205016640,base_link,0.020855631074311546,0.01779192528958303,-0.03958090622670218,-0.9988403123489517,1.0,0.0,0.0,0.0,1.0,0.0,0.0,0.0,1.0,0.0016210825415328145,0.0007649639155715702,-0.0021024546585977077,1.2184696791468346e-07,0.0,0.0,0.0,1.2184696791468346e-07,0.0,0.0,0.0,1.2184696791468346e-07,0.30907827615737915,-0.41950753331184265,9.760856628417969,8.999999999999999e-08,0.0,0.0,0.0,8.999999999999999e-08,0.0,0.0,0.0,8.999999999999999e-08
1758875641212775440,82690,1758875641209016640,base_link,0.020852028671216754,0.017785270203421487,-0.03958343503761289,-0.9988403966426487,1.0,0.0,0.0,0.0,1.0,0.0,0.0,0.0,1.0,0.0009836377575993538,-1.3925833627581618e-05,-0.0001848480897024274,1.2184696791468346e-07,0.0,0.0,0.0,1.2184696791468346e-07,0.0,0.0,0.0,1.2184696791468346e-07,0.3174102306365967,-0.4105837047100055,9.796988487243652,8.999999999999999e-08,0.0,0.0,0.0,8.999999999999999e-08,0.0,0.0,0.0,8.999999999999999e-08
1758875641225589776,82691,1758875641220016640,base_link,0.020857333741136935,0.01778395854739771,-0.03958381435924944,-0.9988402702021032,1.0,0.0,0.0,0.0,1.0,0.0,0.0,0.0,1.0,0.00027353200130164623,0.001174721634015441,-0.0008024033159017564,1.2184696791468346e-07,0.0,0.0,0.0,1.2184696791468346e-07,0.0,0.0,0.0,1.2184696791468346e-07,0.3409775495529175,-0.42272010445594665,9.794244766235352,8.999999999999999e-08,0.0,0.0,0.0,8.999999999999999e-08,0.0,0.0,0.0,8.999999999999999e-08
1758875641242042256,82692,1758875641235016640,base_link,0.020855615433879482,0.017769429244554217,-0.03959224372895165,-0.9988402702021032,1.0,0.0,0.0,0.0,1.0,0.0,0.0,0.0,1.0,0.001273691188544035,0.0005810712464153769,0.002114631002768874,1.2184696791468346e-07,0.0,0.0,0.0,1.2184696791468346e-07,0.0,0.0,0.0,1.2184696791468346e-07,0.31554102897644043,-0.41306707262992737,9.765983581542969,8.999999999999999e-08,0.0,0.0,0.0,8.999999999999999e-08,0.0,0.0,0.0,8.999999999999999e-08
1758875641248606960,82693,1758875641239016640,base_link,0.020845078886387886,0.0177655278622528,-0.03958950418379843,-0.9988406495237399,1.0,0.0,0.0,0.0,1.0,0.0,0.0,0.0,1.0,0.00017110700719058514,-0.0004153870977461343,-0.0038542740512639284,1.2184696791468346e-07,0.0,0.0,0.0,1.2184696791468346e-07,0.0,0.0,0.0,1.2184696791468346e-07,0.28689518570899963,-0.40922766923904297,9.779570579528809,8.999999999999999e-08,0.0,0.0,0.0,8.999999999999999e-08,0.0,0.0,0.0,8.999999999999999e-08
1758875641253564080,82694,1758875641248016640,base_link,0.020848196436088675,0.01777527563805996,-0.03958166486997537,-0.9988407338174368,1.0,0.0,0.0,0.0,1.0,0.0,0.0,0.0,1.0,-0.00024424586445093155,0.00016822805628180425,-0.006475437432527542,1.2184696791468346e-07,0.0,0.0,0.0,1.2184696791468346e-07,0.0,0.0,0.0,1.2184696791468346e-07,0.28342634439468384,-0.4541898667812335,9.811675071716309,8.999999999999999e-08,0.0,0.0,0.0,8.999999999999999e-08,0.0,0.0,0.0,8.999999999999999e-08
1758875641273298416,82695,1758875641265013056,base_link,0.020848696106734108,0.017771117094128173,-0.03956636556396598,-0.9988413660201645,1.0,0.0,0.0,0.0,1.0,0.0,0.0,0.0,1.0,0.0011591187212616205,0.0009559819009155034,-0.0007009105756878854,1.2184696791468346e-07,0.0,0.0,0.0,1.2184696791468346e-07,0.0,0.0,0.0,1.2184696791468346e-07,0.3129991292953491,-0.442124545574187,9.812268257141113,8.999999999999999e-08,0.0,0.0,0.0,8.999999999999999e-08,0.0,0.0,0.0,8.999999999999999e-08
1758875641277537520,82696,1758875641274013056,base_link,0.020863772166155356,0.017768166156187905,-0.03955426941844336,-0.998841576754407,1.0,0.0,0.0,0.0,1.0,0.0,0.0,0.0,1.0,-0.002338905818760395,0.00031360704451799366,-0.0023117391392588615,1.2184696791468346e-07,0.0,0.0,0.0,1.2184696791468346e-07,0.0,0.0,0.0,1.2184696791468346e-07,0.32921627163887024,-0.3975769281387317,9.805205345153809,8.999999999999999e-08,0.0,0.0,0.0,8.999999999999999e-08,0.0,0.0,0.0,8.999999999999999e-08
1758875641286504368,82697,1758875641283013056,base_link,0.02085300315245244,0.01776154432652401,-0.03954925394347049,-0.9988421246634377,1.0,0.0,0.0,0.0,1.0,0.0,0.0,0.0,1.0,-0.0006278820801526308,0.0002941954880952837,0.0016122319502756,1.2184696791468346e-07,0.0,0.0,0.0,1.2184696791468346e-07,0.0,0.0,0.0,1.2184696791468346e-07,0.31590116024017334,-0.3947520852088916,9.815216064453125,8.999999999999999e-08,0.0,0.0,0.0,8.999999999999999e-08,0.0,0.0,0.0,8.999999999999999e-08
1758875641299826320,82698,1758875641295013056,base_link,0.02084691836583481,0.017772020287920874,-0.03956518545220761,-0.9988414503138615,1.0,0.0,0.0,0.0,1.0,0.0,0.0,0.0,1.0,0.0025213775224983692,-0.0008789871353656054,0.00014034670311957609,1.2184696791468346e-07,0.0,0.0,0.0,1.2184696791468346e-07,0.0,0.0,0.0,1.2184696791468346e-07,0.35248786211013794,-0.4295415878295886,9.785727500915527,8.999999999999999e-08,0.0,0.0,0.0,8.999999999999999e-08,0.0,0.0,0.0,8.999999999999999e-08
1758875641313131440,82699,1758875641299013056,base_link,0.020840446684318736,0.017761467276816576,-0.039572223975908954,-0.9988414924607101,1.0,0.0,0.0,0.0,1.0,0.0,0.0,0.0,1.0,0.0027536777779459953,0.0016505246749147773,0.00039225374348461606,1.2184696791468346e-07,0.0,0.0,0.0,1.2184696791468346e-07,0.0,0.0,0.0,1.2184696791468346e-07,0.36174365878105164,-0.4238374829292285,9.768908500671387,8.999999999999999e-08,0.0,0.0,0.0,8.999999999999999e-08,0.0,0.0,0.0,8.999999999999999e-08
1758875641313135856,82700,1758875641304013056,base_link,0.020855521591287094,0.017766488514053817,-0.03956632341711741,-0.9988413238733159,1.0,0.0,0.0,0.0,1.0,0.0,0.0,0.0,1.0,-0.002992282621562481,-0.0009987039957195518,0.0025539081543684006,1.2184696791468346e-07,0.0,0.0,0.0,1.2184696791468346e-07,0.0,0.0,0.0,1.2184696791468346e-07,0.33133915066719055,-0.4336716532707202,9.769377708435059,8.999999999999999e-08,0.0,0.0,0.0,8.999999999999999e-08,0.0,0.0,0.0,8.999999999999999e-08
1758875641346540880,82701,1758875641343013056,base_link,0.020888738411633613,0.01780109650967345,-0.03955603958608076,-0.9988403966426488,1.0,0.0,0.0,0.0,1.0,0.0,0.0,0.0,1.0,-0.0027895928360521793,-0.00114246946759522,-0.0029385031666606665,1.2184696791468346e-07,0.0,0.0,0.0,1.2184696791468346e-07,0.0,0.0,0.0,1.2184696791468346e-07,0.34706422686576843,-0.38011878728866455,9.825109481811523,8.999999999999999e-08,0.0,0.0,0.0,8.999999999999999e-08,0.0,0.0,0.0,8.999999999999999e-08
1758875641354726960,82702,1758875641347013056,base_link,0.02087716268090842,0.0177984871916967,-0.039578208828397465,-0.9988398065867695,1.0,0.0,0.0,0.0,1.0,0.0,0.0,0.0,1.0,0.001140546752139926,-0.0014319529291242357,0.0027245604433119297,1.2184696791468346e-07,0.0,0.0,0.0,1.2184696791468346e-07,0.0,0.0,0.0,1.2184696791468346e-07,0.3459060490131378,-0.4035528004169452,9.812551498413086,8.999999999999999e-08,0.0,0.0,0.0,8.999999999999999e-08,0.0,0.0,0.0,8.999999999999999e-08
1758875641362493968,82703,1758875641356008960,base_link,0.020881382634115576,0.017812061111095238,-0.03958389865294651,-0.998839258677739,1.0,0.0,0.0,0.0,1.0,0.0,0.0,0.0,1.0,0.002099063713103533,-0.0007780408486723897,0.0030510053038597107,1.2184696791468346e-07,0.0,0.0,0.0,1.2184696791468346e-07,0.0,0.0,0.0,1.2184696791468346e-07,0.32073962688446045,-0.43525925278663513,9.784530639648438,8.999999999999999e-08,0.0,0.0,0.0,8.999999999999999e-08,0.0,0.0,0.0,8.999999999999999e-08
1758875641370521040,82704,1758875641367008960,base_link,0.020879475159948202,0.017818475663875243,-0.039570327367726005,-0.9988397644399211,1.0,0.0,0.0,0.0,1.0,0.0,0.0,0.0,1.0,-0.0010292071383446455,-0.001939087873324752,-0.002490987069904804,1.2184696791468346e-07,0.0,0.0,0.0,1.2184696791468346e-07,0.0,0.0,0.0,1.2184696791468346e-07,0.33271312713623047,-0.40039268136024353,9.783147811889648,8.999999999999999e-08,0.0,0.0,0.0,8.999999999999999e-08,0.0,0.0,0.0,8.999999999999999e-08
1758875641387526128,82705,1758875641380008960,base_link,0.02087162876677172,0.017804550575617823,-0.03957938894015577,-0.9988398065867695,1.0,0.0,0.0,0.0,1.0,0.0,0.0,0.0,1.0,-0.0007390514947474003,-0.0002906273584812879,0.00037494237767532473,1.2184696791468346e-07,0.0,0.0,0.0,1.2184696791468346e-07,0.0,0.0,0.0,1.2184696791468346e-07,0.30719664692878723,-0.39921528100967285,9.803092002868652,8.999999999999999e-08,0.0,0.0,0.0,8.999999999999999e-08,0.0,0.0,0.0,8.999999999999999e-08
1758875641390519344,82706,1758875641386008960,base_link,0.020881622508952608,0.017831543327183272,-0.03958094837355074,-0.9988390057966479,1.0,0.0,0.0,0.0,1.0,0.0,0.0,0.0,1.0,0.0002175760455429554,-0.004943873733282089,-0.002464095130562782,1.2184696791468346e-07,0.0,0.0,0.0,1.2184696791468346e-07,0.0,0.0,0.0,1.2184696791468346e-07,0.3136586546897888,-0.4422194957733142,9.809808731079102,8.999999999999999e-08,0.0,0.0,0.0,8.999999999999999e-08,0.0,0.0,0.0,8.999999999999999e-08
1758875641398452912,82707,1758875641391008960,base_link,0.020875874897123062,0.01783091886235358,-0.03957896747167066,-0.9988392165308904,1.0,0.0,0.0,0.0,1.0,0.0,0.0,0.0,1.0,-0.0016358685679733753,-0.002238825662061572,0.0009650706779211763,1.2184696791468346e-07,0.0,0.0,0.0,1.2184696791468346e-07,0.0,0.0,0.0,1.2184696791468346e-07,0.3280503451824188,-0.36093190312385437,9.78327465057373,8.999999999999999e-08,0.0,0.0,0.0,8.999999999999999e-08,0.0,0.0,0.0,8.999999999999999e-08
1758875641406475088,82708,1758875641401008960,base_link,0.02089890996083166,0.017835302957779346,-0.03958389865294645,-0.9988385000344657,1.0,0.0,0.0,0.0,1.0,0.0,0.0,0.0,1.0,-0.0025035683065652847,-0.0016554428730159994,0.002731560729444027,1.2184696791468346e-07,0.0,0.0,0.0,1.2184696791468346e-07,0.0,0.0,0.0,1.2184696791468346e-07,0.3051122725009918,-0.43529123067855713,9.773990631103516,8.999999999999999e-08,0.0,0.0,0.0,8.999999999999999e-08,0.0,0.0,0.0,8.999999999999999e-08
1758875641415428336,82709,1758875641412008960,base_link,0.020876271011644614,0.01783502719226663,-0.03958642746385712,-0.9988388372092538,1.0,0.0,0.0,0.0,1.0,0.0,0.0,0.0,1.0,0.003209161339327693,0.0006224294193089008,-0.00025426165666431194,1.2184696791468346e-07,0.0,0.0,0.0,1.2184696791468346e-07,0.0,0.0,0.0,1.2184696791468346e-07,0.3322983980178833,-0.46461230516433594,9.794926643371582,8.999999999999999e-08,0.0,0.0,0.0,8.999999999999999e-08,0.0,0.0,0.0,8.999999999999999e-08
1758875641422651088,82710,1758875641416008960,base_link,0.02088705467796283,0.017844102594131137,-0.039579431087004284,-0.9988387529155568,1.0,0.0,0.0,0.0,1.0,0.0,0.0,0.0,1.0,7.843109779059887e-05,0.00015044584870338413,-0.0021812953054904938,1.2184696791468346e-07,0.0,0.0,0.0,1.2184696791468346e-07,0.0,0.0,0.0,1.2184696791468346e-07,0.36643463373184204,-0.40334650874137756,9.751595497131348,8.999999999999999e-08,0.0,0.0,0.0,8.999999999999999e-08,0.0,0.0,0.0,8.999999999999999e-08
1758875641425747440,82711,1758875641421008960,base_link,0.020877644241579885,0.017836606875905152,-0.03958351933130985,-0.9988388793561024,1.0,0.0,0.0,0.0,1.0,0.0,0.0,0.0,1.0,0.00120366585906595,0.0006916867569088935,-0.0008706005755811931,1.2184696791468346e-07,0.0,0.0,0.0,1.2184696791468346e-07,0.0,0.0,0.0,1.2184696791468346e-07,0.3498595058917999,-0.4494347870349872,9.788933753967285,8.999999999999999e-08,0.0,0.0,0.0,8.999999999999999e-08,0.0,0.0,0.0,8.999999999999999e-08
1758875641434611120,82712,1758875641431008960,base_link,0.02088043218975443,0.01783472508497359,-0.03960345479065553,-0.9988380785659806,1.0,0.0,0.0,0.0,1.0,0.0,0.0,0.0,1.0,0.00015949713997542858,0.0004739107098430398,0.0022022463381290436,1.2184696791468346e-07,0.0,0.0,0.0,1.2184696791468346e-07,0.0,0.0,0.0,1.2184696791468346e-07,0.3421979248523712,-0.4177226722240436,9.760725021362305,8.999999999999999e-08,0.0,0.0,0.0,8.999999999999999e-08,0.0,0.0,0.0,8.999999999999999e-08
1758875641442522352,82713,1758875641436008960,base_link,0.02088682896183272,0.01783123644544255,-0.0395978071129551,-0.9988382471533748,1.0,0.0,0.0,0.0,1.0,0.0,0.0,0.0,1.0,-0.0021384581923484802,0.0007567771244794132,0.0015333465998992324,1.2184696791468346e-07,0.0,0.0,0.0,1.2184696791468346e-07,0.0,0.0,0.0,1.2184696791468346e-07,0.3663874566555023,-0.4037237763404834,9.813838005065918,8.999999999999999e-08,0.0,0.0,0.0,8.999999999999999e-08,0.0,0.0,0.0,8.999999999999999e-08
1758875641451218928,82714,1758875641446008960,base_link,0.02089667601322446,0.017825372271235092,-0.03960817523768877,-0.9988377413911925,1.0,0.0,0.0,0.0,1.0,0.0,0.0,0.0,1.0,-0.0002511376515030861,0.0020270086824893956,0.001825088635087013,1.2184696791468346e-07,0.0,0.0,0.0,1.2184696791468346e-07,0.0,0.0,0.0,1.2184696791468346e-07,0.34607356786727905,-0.4010726809501636,9.788734436035156,8.999999999999999e-08,0.0,0.0,0.0,8.999999999999999e-08,0.0,0.0,0.0,8.999999999999999e-08
1758875641460559600,82715,1758875641451008960,base_link,0.020900206964240133,0.017829722780890955,-0.03961108337023597,-0.998837446363253,1.0,0.0,0.0,0.0,1.0,0.0,0.0,0.0,1.0,0.00027859490364789963,-0.0008256363216787576,0.0008884689887054266,1.2184696791468346e-07,0.0,0.0,0.0,1.2184696791468346e-07,0.0,0.0,0.0,1.2184696791468346e-07,0.32910579442977905,-0.45239630341529724,9.76335620880127,8.999999999999999e-08,0.0,0.0,0.0,8.999999999999999e-08,0.0,0.0,0.0,8.999999999999999e-08
1758875641462681136,82716,1758875641459015616,base_link,0.020891042164958667,0.0178316672981869,-0.03961015613956873,-0.9988376992443441,1.0,0.0,0.0,0.0,1.0,0.0,0.0,0.0,1.0,0.0029301235917955637,-0.0013971866574138405,-0.0016150523442775009,1.2184696791468346e-07,0.0,0.0,0.0,1.2184696791468346e-07,0.0,0.0,0.0,1.2184696791468346e-07,0.35977983474731445,-0.4239208698272693,9.761786460876465,8.999999999999999e-08,0.0,0.0,0.0,8.999999999999999e-08,0.0,0.0,0.0,8.999999999999999e-08
1758875641470941936,82717,1758875641466015616,base_link,0.020886959024373045,0.017829715536901367,-0.03960800665029472,-0.9988379099785866,1.0,0.0,0.0,0.0,1.0,0.0,0.0,0.0,1.0,0.0004670990165323019,0.0003032700624316932,0.0008874716004356742,1.2184696791468346e-07,0.0,0.0,0.0,1.2184696791468346e-07,0.0,0.0,0.0,1.2184696791468346e-07,0.29089656472206116,-0.39017602801322815,9.776386260986328,8.999999999999999e-08,0.0,0.0,0.0,8.999999999999999e-08,0.0,0.0,0.0,8.999999999999999e-08
1758875641483620432,82718,1758875641476015616,base_link,0.02089328813100314,0.017838598808405673,-0.03960977681793213,-0.9988375728037985,1.0,0.0,0.0,0.0,1.0,0.0,0.0,0.0,1.0,0.0007577140349894762,-0.0015060731675475836,0.00041793141281232254,1.2184696791468346e-07,0.0,0.0,0.0,1.2184696791468346e-07,0.0,0.0,0.0,1.2184696791468346e-07,0.3289009928703308,-0.4303503334522235,9.775080680847168,8.999999999999999e-08,0.0,0.0,0.0,8.999999999999999e-08,0.0,0.0,0.0,8.999999999999999e-08
1758875641490445488,82719,1758875641481015616,base_link,0.020898579865397036,0.017856227057067606,-0.03961723681011864,-0.9988367720136767,1.0,0.0,0.0,0.0,1.0,0.0,0.0,0.0,1.0,-0.00041016959585249424,0.0023426353000104423,-0.003410610603168607,1.2184696791468346e-07,0.0,0.0,0.0,1.2184696791468346e-07,0.0,0.0,0.0,1.2184696791468346e-07,0.35681864619255066,-0.4267913997173297,9.804427146911621,8.999999999999999e-08,0.0,0.0,0.0,8.999999999999999e-08,0.0,0.0,0.0,8.999999999999999e-08
1758875641507653072,82720,1758875641495015616,base_link,0.020897411772076,0.017832915733937908,-0.039612895684722,-0.9988374042164045,1.0,0.0,0.0,0.0,1.0,0.0,0.0,0.0,1.0,7.176701910793781e-05,9.378162212669848e-05,-0.00012751691974699497,1.2184696791468346e-07,0.0,0.0,0.0,1.2184696791468346e-07,0.0,0.0,0.0,1.2184696791468346e-07,0.3145553767681122,-0.45792725682258484,9.81907844543457,8.999999999999999e-08,0.0,0.0,0.0,8.999999999999999e-08,0.0,0.0,0.0,8.999999999999999e-08
1758875641510924816,82721,1758875641504015616,base_link,0.020900416710665927,0.01783335893439178,-0.0396182061876344,-0.9988371513353134,1.0,0.0,0.0,0.0,1.0,0.0,0.0,0.0,1.0,-0.0008281581103801727,-0.00368886929936707,-0.0012570030521601434,1.2184696791468346e-07,0.0,0.0,0.0,1.2184696791468346e-07,0.0,0.0,0.0,1.2184696791468346e-07,0.286067932844162,-0.4433323740959155,9.803879737854004,8.999999999999999e-08,0.0,0.0,0.0,8.999999999999999e-08,0.0,0.0,0.0,8.999999999999999e-08
1758875641520486128,82722,1758875641510015616,base_link,0.02091387258596141,0.01784916877703105,-0.039608680999870895,-0.9988368984542224,1.0,0.0,0.0,0.0,1.0,0.0,0.0,0.0,1.0,-0.0016943453811109066,0.0003518704324960708,-0.0002385947154834867,1.2184696791468346e-07,0.0,0.0,0.0,1.2184696791468346e-07,0.0,0.0,0.0,1.2184696791468346e-07,0.3236581087112427,-0.38419944047927734,9.793989181518555,8.999999999999999e-08,0.0,0.0,0.0,8.999999999999999e-08,0.0,0.0,0.0,8.999999999999999e-08
1758875641524257936,82723,1758875641519015616,base_link,0.02091711970429415,0.017852225246728724,-0.03959215943525462,-0.9988374885101015,1.0,0.0,0.0,0.0,1.0,0.0,0.0,0.0,1.0,-0.00047848187386989594,0.001593213528394699,-0.0001361694885417821,1.2184696791468346e-07,0.0,0.0,0.0,1.2184696791468346e-07,0.0,0.0,0.0,1.2184696791468346e-07,0.28359633684158325,-0.3886734545230853,9.792920112609863,8.999999999999999e-08,0.0,0.0,0.0,8.999999999999999e-08,0.0,0.0,0.0,8.999999999999999e-08
1758875641530464912,82724,1758875641525015616,base_link,0.020903567187592117,0.01785388971797265,-0.03960446631501979,-0.9988372356290104,1.0,0.0,0.0,0.0,1.0,0.0,0.0,0.0,1.0,0.0014117226237431169,0.0002561558503657579,-0.0006580610061064363,1.2184696791468346e-07,0.0,0.0,0.0,1.2184696791468346e-07,0.0,0.0,0.0,1.2184696791468346e-07,0.34604915976524353,-0.4416747391223895,9.782169342041016,8.999999999999999e-08,0.0,0.0,0.0,8.999999999999999e-08,0.0,0.0,0.0,8.999999999999999e-08
1758875641543435184,82725,1758875641536015616,base_link,0.020901564883015592,0.01784486535330751,-0.03960459275556533,-0.998837446363253,1.0,0.0,0.0,0.0,1.0,0.0,0.0,0.0,1.0,0.0020476558711379766,-0.0009239420760422944,0.001286525861360133,1.2184696791468346e-07,0.0,0.0,0.0,1.2184696791468346e-07,0.0,0.0,0.0,1.2184696791468346e-07,0.33871224522590637,-0.3663625717163074,9.780978202819824,8.999999999999999e-08,0.0,0.0,0.0,8.999999999999999e-08,0.0,0.0,0.0,8.999999999999999e-08
1758875641550676944,82726,1758875641545015616,base_link,0.020895888393992913,0.01786420795795985,-0.03962528685818419,-0.9988363926920403,1.0,0.0,0.0,0.0,1.0,0.0,0.0,0.0,1.0,0.002575585152953863,-0.001637284411117434,0.003881551092490554,1.2184696791468346e-07,0.0,0.0,0.0,1.2184696791468346e-07,0.0,0.0,0.0,1.2184696791468346e-07,0.3378002941608429,-0.4482474625110614,9.77325439453125,8.999999999999999e-08,0.0,0.0,0.0,8.999999999999999e-08,0.0,0.0,0.0,8.999999999999999e-08
1758875641579778224,82727,1758875641569013824,base_link,0.020882782699739547,0.01787534328704533,-0.039631103123278666,-0.9988362241046461,1.0,0.0,0.0,0.0,1.0,0.0,0.0,0.0,1.0,0.0023419454228132963,0.002696635201573372,-0.0010878352914005522,1.2184696791468346e-07,0.0,0.0,0.0,1.2184696791468346e-07,0.0,0.0,0.0,1.2184696791468346e-07,0.3235747218132019,-0.4419435858726489,9.799263000488281,8.999999999999999e-08,0.0,0.0,0.0,8.999999999999999e-08,0.0,0.0,0.0,8.999999999999999e-08
1758875641583939088,82728,1758875641578013824,base_link,0.020893365345346703,0.017884614441264837,-0.03963253611612804,-0.998835802636161,1.0,0.0,0.0,0.0,1.0,0.0,0.0,0.0,1.0,-0.00182786351069808,0.001237940974533558,-0.00017329503316432254,1.2184696791468346e-07,0.0,0.0,0.0,1.2184696791468346e-07,0.0,0.0,0.0,1.2184696791468346e-07,0.35117441415786743,-0.4055907130241382,9.762408256530762,8.999999999999999e-08,0.0,0.0,0.0,8.999999999999999e-08,0.0,0.0,0.0,8.999999999999999e-08
1758875641598485584,82729,1758875641593013824,base_link,0.020903222604178314,0.017867692316951587,-0.03964850977171367,-0.9988352547271304,1.0,0.0,0.0,0.0,1.0,0.0,0.0,0.0,1.0,-0.0014989562332630157,0.002515776548534632,0.003351601772010326,1.2184696791468346e-07,0.0,0.0,0.0,1.2184696791468346e-07,0.0,0.0,0.0,1.2184696791468346e-07,0.36727768182754517,-0.43195074796676514,9.81539535522461,8.999999999999999e-08,0.0,0.0,0.0,8.999999999999999e-08,0.0,0.0,0.0,8.999999999999999e-08
1758875641608761296,82730,1758875641597013824,base_link,0.020900497876276538,0.017875274469144244,-0.039639953961465926,-0.9988355497550699,1.0,0.0,0.0,0.0,1.0,0.0,0.0,0.0,1.0,-0.0006592611316591501,-0.0006154393777251244,-7.255934178829185e-05,1.2184696791468346e-07,0.0,0.0,0.0,1.2184696791468346e-07,0.0,0.0,0.0,1.2184696791468346e-07,0.37815895676612854,-0.3962801396846759,9.809348106384277,8.999999999999999e-08,0.0,0.0,0.0,8.999999999999999e-08,0.0,0.0,0.0,8.999999999999999e-08
1758875641615663024,82731,1758875641612013824,base_link,0.02092062052689858,0.01787720252282749,-0.03963919531819279,-0.9988350439928879,1.0,0.0,0.0,0.0,1.0,0.0,0.0,0.0,1.0,-0.0016734497621655464,-0.0005871248431503773,0.00040745548903942114,1.2184696791468346e-07,0.0,0.0,0.0,1.2184696791468346e-07,0.0,0.0,0.0,1.2184696791468346e-07,0.2872033417224884,-0.45219430327415344,9.810757637023926,8.999999999999999e-08,0.0,0.0,0.0,8.999999999999999e-08,0.0,0.0,0.0,8.999999999999999e-08
1758875641626502576,82732,1758875641623013824,base_link,0.020903962972841413,0.0178703105252792,-0.039631103123278666,-0.998835886929858,1.0,0.0,0.0,0.0,1.0,0.0,0.0,0.0,1.0,0.001994204241782427,0.002698450116440654,-0.0007518208585679534,1.2184696791468346e-07,0.0,0.0,0.0,1.2184696791468346e-07,0.0,0.0,0.0,1.2184696791468346e-07,0.3574320673942566,-0.42002323269843933,9.794387817382812,8.999999999999999e-08,0.0,0.0,0.0,8.999999999999999e-08,0.0,0.0,0.0,8.999999999999999e-08
1758875641633782128,82733,1758875641627013824,base_link,0.020903735445713906,0.017860183098563187,-0.03964475870219625,-0.9988355497550699,1.0,0.0,0.0,0.0,1.0,0.0,0.0,0.0,1.0,0.0008894279599189758,0.0016560222720727327,0.0023482143878936768,1.2184696791468346e-07,0.0,0.0,0.0,1.2184696791468346e-07,0.0,0.0,0.0,1.2184696791468346e-07,0.32089120149612427,-0.42365911602973816,9.76843547821045,8.999999999999999e-08,0.0,0.0,0.0,8.999999999999999e-08,0.0,0.0,0.0,8.999999999999999e-08
1758875641643058544,82734,1758875641638013824,base_link,0.02090504117483711,0.017874611314824707,-0.03965588547020311,-0.9988347911117968,1.0,0.0,0.0,0.0,1.0,0.0,0.0,0.0,1.0,0.00030818674713373184,-0.0019140949007123707,0.0011658823350444438,1.2184696791468346e-07,0.0,0.0,0.0,1.2184696791468346e-07,0.0,0.0,0.0,1.2184696791468346e-07,0.3317553699016571,-0.4546891152858722,9.761052131652832,8.999999999999999e-08,0.0,0.0,0.0,8.999999999999999e-08,0.0,0.0,0.0,8.999999999999999e-08
1758875641660022288,82735,1758875641653013824,base_link,0.02091463369877651,0.01787292395915913,-0.03965103858262439,-0.9988348332586453,1.0,0.0,0.0,0.0,1.0,0.0,0.0,0.0,1.0,-0.00018394598737359047,-0.0007397264707833527,0.0011405725963413715,1.2184696791468346e-07,0.0,0.0,0.0,1.2184696791468346e-07,0.0,0.0,0.0,1.2184696791468346e-07,0.3692065179347992,-0.3800329864025104,9.790647506713867,8.999999999999999e-08,0.0,0.0,0.0,8.999999999999999e-08,0.0,0.0,0.0,8.999999999999999e-08
1758875641661672656,82736,1758875641657017408,base_link,0.020914276273744804,0.017874477301017332,-0.039657234169355404,-0.9988345382307057,1.0,0.0,0.0,0.0,1.0,0.0,0.0,0.0,1.0,-0.0009044294711202383,-0.0003676514606922861,0.0029707157518714666,1.2184696791468346e-07,0.0,0.0,0.0,1.2184696791468346e-07,0.0,0.0,0.0,1.2184696791468346e-07,0.3082117736339569,-0.3799203634262073,9.76976203918457,8.999999999999999e-08,0.0,0.0,0.0,8.999999999999999e-08,0.0,0.0,0.0,8.999999999999999e-08
1758875641672705520,82737,1758875641668017408,base_link,0.02092607360469693,0.017890041177282868,-0.039653019484504406,-0.9988342010559176,1.0,0.0,0.0,0.0,1.0,0.0,0.0,0.0,1.0,-0.0015506958588957787,-0.002895720535889268,-0.0017635070253163572,1.2184696791468346e-07,0.0,0.0,0.0,1.2184696791468346e-07,0.0,0.0,0.0,1.2184696791468346e-07,0.32925742864608765,-0.4414473772048938,9.817634582519531,8.999999999999999e-08,0.0,0.0,0.0,8.999999999999999e-08,0.0,0.0,0.0,8.999999999999999e-08
1758875641682564848,82738,1758875641672017408,base_link,0.020927148020061705,0.017880874567004004,-0.03965908863068995,-0.9988341167622207,1.0,0.0,0.0,0.0,1.0,0.0,0.0,0.0,1.0,-0.001928788609802723,-0.0010123753454536197,0.0017671375535428526,1.2184696791468346e-07,0.0,0.0,0.0,1.2184696791468346e-07,0.0,0.0,0.0,1.2184696791468346e-07,0.3716943860054016,-0.37853449583053467,9.806926727294922,8.999999999999999e-08,0.0,0.0,0.0,8.999999999999999e-08,0.0,0.0,0.0,8.999999999999999e-08
1758875641693829072,82739,1758875641687017408,base_link,0.020945318909398217,0.017906196591152702,-0.03965866716220477,-0.9988332738252503,1.0,0.0,0.0,0.0,1.0,0.0,0.0,0.0,1.0,-0.0021037845872342587,-0.002453811233863235,-0.003435286227613687,1.2184696791468346e-07,0.0,0.0,0.0,1.2184696791468346e-07,0.0,0.0,0.0,1.2184696791468346e-07,0.33547407388687134,-0.43672475218772766,9.813202857971191,8.999999999999999e-08,0.0,0.0,0.0,8.999999999999999e-08,0.0,0.0,0.0,8.999999999999999e-08
1758875641696590288,82740,1758875641692017408,base_link,0.020932862210757474,0.017913616741396396,-0.03964577022656045,-0.9988339481748265,1.0,0.0,0.0,0.0,1.0,0.0,0.0,0.0,1.0,0.0005124097224324942,-0.003452507080510259,-0.003308376763015985,1.2184696791468346e-07,0.0,0.0,0.0,1.2184696791468346e-07,0.0,0.0,0.0,1.2184696791468346e-07,0.3543156385421753,-0.4006863236427295,9.792799949645996,8.999999999999999e-08,0.0,0.0,0.0,8.999999999999999e-08,0.0,0.0,0.0,8.999999999999999e-08
1758875641706625616,82741,1758875641702017408,base_link,0.020952042484188596,0.017893243185316807,-0.039663556196632116,-0.9988331895315533,1.0,0.0,0.0,0.0,1.0,0.0,0.0,0.0,1.0,-0.001987806521356106,0.0022920456249266863,0.0015292471507564185,1.2184696791468346e-07,0.0,0.0,0.0,1.2184696791468346e-07,0.0,0.0,0.0,1.2184696791468346e-07,0.33464741706848145,-0.4270980656146991,9.759580612182617,8.999999999999999e-08,0.0,0.0,0.0,8.999999999999999e-08,0.0,0.0,0.0,8.999999999999999e-08
1758875641716522704,82742,1758875641713017408,base_link,0.02095930441911425,0.017896852503128936,-0.0396564755260822,-0.9988332738252503,1.0,0.0,0.0,0.0,1.0,0.0,0.0,0.0,1.0,-0.0016223955899477005,0.001663522096350789,-5.454767961055061e-05,1.2184696791468346e-07,0.0,0.0,0.0,1.2184696791468346e-07,0.0,0.0,0.0,1.2184696791468346e-07,0.3255728483200073,-0.45558774471282837,9.773870468139648,8.999999999999999e-08,0.0,0.0,0.0,8.999999999999999e-08,0.0,0.0,0.0,8.999999999999999e-08
1758875641724949808,82743,1758875641717017408,base_link,0.020943823848728973,0.0178954453581515,-0.039664820602087446,-0.9988332738252503,1.0,0.0,0.0,0.0,1.0,0.0,0.0,0.0,1.0,0.0024090309161692858,0.0009307067375630139,-0.0011548774782568218,1.2184696791468346e-07,0.0,0.0,0.0,1.2184696791468346e-07,0.0,0.0,0.0,1.2184696791468346e-07,0.30001524090766907,-0.36329394578933594,9.779245376586914,8.999999999999999e-08,0.0,0.0,0.0,8.999999999999999e-08,0.0,0.0,0.0,8.999999999999999e-08
1758875641731589072,82744,1758875641722017408,base_link,0.020942107681741172,0.01789207756153768,-0.03966616930123974,-0.9988333581189475,1.0,0.0,0.0,0.0,1.0,0.0,0.0,0.0,1.0,0.0013877135934308171,0.0012787997256964447,0.00239383103325963,1.2184696791468346e-07,0.0,0.0,0.0,1.2184696791468346e-07,0.0,0.0,0.0,1.2184696791468346e-07,0.3280898928642273,-0.4089250564575183,9.792966842651367,8.999999999999999e-08,0.0,0.0,0.0,8.999999999999999e-08,0.0,0.0,0.0,8.999999999999999e-08
1758875641739770384,82745,1758875641732017408,base_link,0.020938579529539654,0.01788522968647142,-0.03966701223821002,-0.9988334424126444,1.0,0.0,0.0,0.0,1.0,0.0,0.0,0.0,1.0,0.00040095741860568523,0.0018421796848997476,0.0014988578623160718,1.2184696791468346e-07,0.0,0.0,0.0,1.2184696791468346e-07,0.0,0.0,0.0,1.2184696791468346e-07,0.29758745431900024,-0.463055223226546,9.788084030151367,8.999999999999999e-08,0.0,0.0,0.0,8.999999999999999e-08,0.0,0.0,0.0,8.999999999999999e-08
1758875641751511568,82746,1758875641747017408,base_link,0.020940264580299454,0.017890519939140172,-0.03969048803283057,-0.9988323887414317,1.0,0.0,0.0,0.0,1.0,0.0,0.0,0.0,1.0,-0.000638794619590044,-0.0006548685487359757,0.004103988409042358,1.2184696791468346e-07,0.0,0.0,0.0,1.2184696791468346e-07,0.0,0.0,0.0,1.2184696791468346e-07,0.3179919719696045,-0.42505925893783447,9.766709327697754,8.999999999999999e-08,0.0,0.0,0.0,8.999999999999999e-08,0.0,0.0,0.0,8.999999999999999e-08
1758875641761652208,82747,1758875641752016384,base_link,0.020932505444270274,0.01789072952092984,-0.03968757990028325,-0.9988326837693712,1.0,0.0,0.0,0.0,1.0,0.0,0.0,0.0,1.0,-0.0006562808994203806,-0.000991760054603219,-0.0008726525120437144,1.2184696791468346e-07,0.0,0.0,0.0,1.2184696791468346e-07,0.0,0.0,0.0,1.2184696791468346e-07,0.29459691047668457,-0.44166186451911804,9.751718521118164,8.999999999999999e-08,0.0,0.0,0.0,8.999999999999999e-08,0.0,0.0,0.0,8.999999999999999e-08
1758875641772396848,82748,1758875641762016384,base_link,0.020937972680775546,0.01789182929025817,-0.03968956080216332,-0.9988324730351288,1.0,0.0,0.0,0.0,1.0,0.0,0.0,0.0,1.0,-0.0005863949190825224,0.0020214561372995377,0.0013859402388334272,1.2184696791468346e-07,0.0,0.0,0.0,1.2184696791468346e-07,0.0,0.0,0.0,1.2184696791468346e-07,0.35605812072753906,-0.4290199875831592,9.780176162719727,8.999999999999999e-08,0.0,0.0,0.0,8.999999999999999e-08,0.0,0.0,0.0,8.999999999999999e-08
1758875641778966320,82749,1758875641775016384,base_link,0.020923851675527,0.017887208118809526,-0.03970713603799238,-0.998832178007189,1.0,0.0,0.0,0.0,1.0,0.0,0.0,0.0,1.0,-0.0006344986613839865,-0.0010945948306471105,0.0031782803125679493,1.2184696791468346e-07,0.0,0.0,0.0,1.2184696791468346e-07,0.0,0.0,0.0,1.2184696791468346e-07,0.33297300338745117,-0.39135095477104065,9.792738914489746,8.999999999999999e-08,0.0,0.0,0.0,8.999999999999999e-08,0.0,0.0,0.0,8.999999999999999e-08
1758875641784713712,82750,1758875641777016384,base_link,0.020936432345171375,0.017906021582949704,-0.039701488360291894,-0.998831756538704,1.0,0.0,0.0,0.0,1.0,0.0,0.0,0.0,1.0,-0.002790881786495447,-0.004753369837999344,-0.0016710727941244834,1.2184696791468346e-07,0.0,0.0,0.0,1.2184696791468346e-07,0.0,0.0,0.0,1.2184696791468346e-07,0.3304890990257263,-0.46344465017318603,9.783538818359375,8.999999999999999e-08,0.0,0.0,0.0,8.999999999999999e-08,0.0,0.0,0.0,8.999999999999999e-08
1758875641795030832,82751,1758875641790016384,base_link,0.02095315196704842,0.017895708282046313,-0.03970220485671653,-0.9988316300981585,1.0,0.0,0.0,0.0,1.0,0.0,0.0,0.0,1.0,-0.002869906835258007,0.000922211678698659,0.0009647740516811608,1.2184696791468346e-07,0.0,0.0,0.0,1.2184696791468346e-07,0.0,0.0,0.0,1.2184696791468346e-07,0.35788270831108093,-0.39596351981162903,9.793732643127441,8.999999999999999e-08,0.0,0.0,0.0,8.999999999999999e-08,0.0,0.0,0.0,8.999999999999999e-08
1758875641803704944,82752,1758875641796016384,base_link,0.020946319403141973,0.017902327477532176,-0.039712868009389765,-0.9988311664828248,1.0,0.0,0.0,0.0,1.0,0.0,0.0,0.0,1.0,0.0025536022149026394,0.00010986346751451522,0.0024390798062086105,1.2184696791468346e-07,0.0,0.0,0.0,1.2184696791468346e-07,0.0,0.0,0.0,1.2184696791468346e-07,0.32010000944137573,-0.4449925124645221,9.806161880493164,8.999999999999999e-08,0.0,0.0,0.0,8.999999999999999e-08,0.0,0.0,0.0,8.999999999999999e-08
1758875641810731984,82753,1758875641807016384,base_link,0.02094818489509696,0.01789409517727401,-0.03969980248635145,-0.998831756538704,1.0,0.0,0.0,0.0,1.0,0.0,0.0,0.0,1.0,0.0008738941978663206,0.0016797344433143733,-0.001849277410656214,1.2184696791468346e-07,0.0,0.0,0.0,1.2184696791468346e-07,0.0,0.0,0.0,1.2184696791468346e-07,0.3216072618961334,-0.39395269751548645,9.78210735321045,8.999999999999999e-08,0.0,0.0,0.0,8.999999999999999e-08,0.0,0.0,0.0,8.999999999999999e-08
1758875641826300176,82754,1758875641822016384,base_link,0.02093078713701282,0.017876985203139857,-0.03972049658897027,-0.9988316300981585,1.0,0.0,0.0,0.0,1.0,0.0,0.0,0.0,1.0,0.004092569462954998,0.0031669978052377705,0.0031725210137665267,1.2184696791468346e-07,0.0,0.0,0.0,1.2184696791468346e-07,0.0,0.0,0.0,1.2184696791468346e-07,0.30694758892059326,-0.4389264881610858,9.795676231384277,8.999999999999999e-08,0.0,0.0,0.0,8.999999999999999e-08,0.0,0.0,0.0,8.999999999999999e-08
1758875641837820720,82755,1758875641831016384,base_link,0.020933876369299765,0.01787951467259502,-0.039713879533754035,-0.998831840832401,1.0,0.0,0.0,0.0,1.0,0.0,0.0,0.0,1.0,-0.0019336710684001446,-0.0003998258616775277,-0.002432765904814005,1.2184696791468346e-07,0.0,0.0,0.0,1.2184696791468346e-07,0.0,0.0,0.0,1.2184696791468346e-07,0.330974280834198,-0.41940706968307373,9.798687934875488,8.999999999999999e-08,0.0,0.0,0.0,8.999999999999999e-08,0.0,0.0,0.0,8.999999999999999e-08
1758875641843618992,82756,1758875641840016384,base_link,0.02094517435887872,0.01788771486880842,-0.03969579853574296,-0.9988321358603406,1.0,0.0,0.0,0.0,1.0,0.0,0.0,0.0,1.0,-0.005662530194967985,-0.0019613963086158037,-0.0005925735458731649,1.2184696791468346e-07,0.0,0.0,0.0,1.2184696791468346e-07,0.0,0.0,0.0,1.2184696791468346e-07,0.33729758858680725,-0.38655877113342163,9.831268310546875,8.999999999999999e-08,0.0,0.0,0.0,8.999999999999999e-08,0.0,0.0,0.0,8.999999999999999e-08
1758875641850806736,82757,1758875641841016384,base_link,0.020960377682026136,0.017889649507936745,-0.0397034271153234,-0.998831503657613,1.0,0.0,0.0,0.0,1.0,0.0,0.0,0.0,1.0,-0.0018304809927940369,-0.0001512728631496427,0.0019325297325849533,1.2184696791468346e-07,0.0,0.0,0.0,1.2184696791468346e-07,0.0,0.0,0.0,1.2184696791468346e-07,0.3509145677089691,-0.4089362621307361,9.768486022949219,8.999999999999999e-08,0.0,0.0,0.0,8.999999999999999e-08,0.0,0.0,0.0,8.999999999999999e-08
1758875641863614576,82758,1758875641856015104,base_link,0.020949440245565304,0.017878467751463453,-0.03969879096198719,-0.9988320937134921,1.0,0.0,0.0,0.0,1.0,0.0,0.0,0.0,1.0,-0.0010533975437283516,0.0006474249530583617,-0.002394183538854122,1.2184696791468346e-07,0.0,0.0,0.0,1.2184696791468346e-07,0.0,0.0,0.0,1.2184696791468346e-07,0.33951541781425476,-0.4375113546848285,9.74942398071289,8.999999999999999e-08,0.0,0.0,0.0,8.999999999999999e-08,0.0,0.0,0.0,8.999999999999999e-08
1758875641871547856,82759,1758875641867015104,base_link,0.02094320415834696,0.017885075257784298,-0.039696894353804246,-0.9988322201540376,1.0,0.0,0.0,0.0,1.0,0.0,0.0,0.0,1.0,-8.455407805740833e-05,-0.0008273839484900235,0.0007336975540965797,1.2184696791468346e-07,0.0,0.0,0.0,1.2184696791468346e-07,0.0,0.0,0.0,1.2184696791468346e-07,0.3286161720752716,-0.3897661566734302,9.828941345214844,8.999999999999999e-08,0.0,0.0,0.0,8.999999999999999e-08,0.0,0.0,0.0,8.999999999999999e-08
1758875641880554640,82760,1758875641876015104,base_link,0.020956623813694505,0.01788265856407613,-0.03969162599774031,-0.9988321780071892,1.0,0.0,0.0,0.0,1.0,0.0,0.0,0.0,1.0,-0.0027130688540637493,-6.643054075539139e-05,-0.002163076540455222,1.2184696791468346e-07,0.0,0.0,0.0,1.2184696791468346e-07,0.0,0.0,0.0,1.2184696791468346e-07,0.33184459805488586,-0.4161451160907733,9.784704208374023,8.999999999999999e-08,0.0,0.0,0.0,8.999999999999999e-08,0.0,0.0,0.0,8.999999999999999e-08
1758875641899445136,82761,1758875641891015104,base_link,0.020964490292478488,0.017868090736378916,-0.03969179458513441,-0.9988322623008861,1.0,0.0,0.0,0.0,1.0,0.0,0.0,0.0,1.0,-0.0005746351089328527,0.001309182378463447,0.00036406290018931015,1.2184696791468346e-07,0.0,0.0,0.0,1.2184696791468346e-07,0.0,0.0,0.0,1.2184696791468346e-07,0.3023558259010315,-0.4434132874011981,9.824945449829102,8.999999999999999e-08,0.0,0.0,0.0,8.999999999999999e-08,0.0,0.0,0.0,8.999999999999999e-08
1758875641902454288,82762,1758875641900015104,base_link,0.020963400895226154,0.017861862387058544,-0.03967615810433686,-0.9988329787973108,1.0,0.0,0.0,0.0,1.0,0.0,0.0,0.0,1.0,0.0010342533932998776,0.0008073579519987102,-0.003128382842987776,1.2184696791468346e-07,0.0,0.0,0.0,1.2184696791468346e-07,0.0,0.0,0.0,1.2184696791468346e-07,0.3089892268180847,-0.47272247076034424,9.810096740722656,8.999999999999999e-08,0.0,0.0,0.0,8.999999999999999e-08,0.0,0.0,0.0,8.999999999999999e-08
1758875641911645040,82763,1758875641906015104,base_link,0.020956593026738756,0.01786914704176972,-0.03967708533500405,-0.9988329787973108,1.0,0.0,0.0,0.0,1.0,0.0,0.0,0.0,1.0,0.0011880488600581884,-0.000575867714360356,0.002359873615205288,1.2184696791468346e-07,0.0,0.0,0.0,1.2184696791468346e-07,0.0,0.0,0.0,1.2184696791468346e-07,0.3056284189224243,-0.39880183339118835,9.801826477050781,8.999999999999999e-08,0.0,0.0,0.0,8.999999999999999e-08,0.0,0.0,0.0,8.999999999999999e-08
1758875641928545488,82764,1758875641921015104,base_link,0.020983923611636805,0.017864883953897296,-0.03968770634082878,-0.9988320515666436,1.0,0.0,0.0,0.0,1.0,0.0,0.0,0.0,1.0,-0.005391853395849466,-0.0012665290851145983,9.022222366184011e-05,1.2184696791468346e-07,0.0,0.0,0.0,1.2184696791468346e-07,0.0,0.0,0.0,1.2184696791468346e-07,0.2965158224105835,-0.44083830714225647,9.804281234741211,8.999999999999999e-08,0.0,0.0,0.0,8.999999999999999e-08,0.0,0.0,0.0,8.999999999999999e-08
1758875641934505776,82765,1758875641931015104,base_link,0.02098064850516248,0.0178788406522911,-0.0396915838508918,-0.9988317143918555,1.0,0.0,0.0,0.0,1.0,0.0,0.0,0.0,1.0,0.0009286345448344946,-0.000302925705909729,0.00017227488569915297,1.2184696791468346e-07,0.0,0.0,0.0,1.2184696791468346e-07,0.0,0.0,0.0,1.2184696791468346e-07,0.3394008278846741,-0.4151916503906238,9.786432266235352,8.999999999999999e-08,0.0,0.0,0.0,8.999999999999999e-08,0.0,0.0,0.0,8.999999999999999e-08
1758875641940513776,82766,1758875641936015104,base_link,0.0209789776131096,0.017875909635322196,-0.0396877906345258,-0.9988319672729465,1.0,0.0,0.0,0.0,1.0,0.0,0.0,0.0,1.0,-0.0003705930430442095,0.00044317659921944163,0.0019278143299743533,1.2184696791468346e-07,0.0,0.0,0.0,1.2184696791468346e-07,0.0,0.0,0.0,1.2184696791468346e-07,0.3216584026813507,-0.41668736934661743,9.806225776672363,8.999999999999999e-08,0.0,0.0,0.0,8.999999999999999e-08,0.0,0.0,0.0,8.999999999999999e-08
1758875641951518736,82767,1758875641946015104,base_link,0.020981623644942674,0.017869143749047182,-0.039684376739796405,-0.998832178007189,1.0,0.0,0.0,0.0,1.0,0.0,0.0,0.0,1.0,-4.7561945393681526e-05,0.0004050885327160356,-0.0015739011578261852,1.2184696791468346e-07,0.0,0.0,0.0,1.2184696791468346e-07,0.0,0.0,0.0,1.2184696791468346e-07,0.3465041220188141,-0.4271787106990802,9.781476974487305,8.999999999999999e-08,0.0,0.0,0.0,8.999999999999999e-08,0.0,0.0,0.0,8.999999999999999e-08
1758875641955706384,82768,1758875641951015104,base_link,0.020982016960650066,0.017875636174715256,-0.03967721177554958,-0.9988323465945832,1.0,0.0,0.0,0.0,1.0,0.0,0.0,0.0,1.0,0.0006778084207326174,-0.0009792670607566838,-0.004260346293449402,1.2184696791468346e-07,0.0,0.0,0.0,1.2184696791468346e-07,0.0,0.0,0.0,1.2184696791468346e-07,0.3488686978816986,-0.3877533972263324,9.756728172302246,8.999999999999999e-08,0.0,0.0,0.0,8.999999999999999e-08,0.0,0.0,0.0,8.999999999999999e-08
1758875641961578480,82769,1758875641955012544,base_link,0.020966225721893147,0.017877108021690596,-0.039675399461063666,-0.9988327259162197,1.0,0.0,0.0,0.0,1.0,0.0,0.0,0.0,1.0,0.0021525572519749403,-0.0005017323419451715,-0.0005478757666423916,1.2184696791468346e-07,0.0,0.0,0.0,1.2184696791468346e-07,0.0,0.0,0.0,1.2184696791468346e-07,0.32717838883399963,-0.3864828348159778,9.791218757629395,8.999999999999999e-08,0.0,0.0,0.0,8.999999999999999e-08,0.0,0.0,0.0,8.999999999999999e-08
1758875641969634192,82770,1758875641966012544,base_link,0.020973555980811503,0.017884513354682864,-0.0396715640978491,-0.9988325994756742,1.0,0.0,0.0,0.0,1.0,0.0,0.0,0.0,1.0,-0.0012125950306653976,0.0004411011468619106,-0.0017874650657176971,1.2184696791468346e-07,0.0,0.0,0.0,1.2184696791468346e-07,0.0,0.0,0.0,1.2184696791468346e-07,0.3341202735900879,-0.43949344754218933,9.810397148132324,8.999999999999999e-08,0.0,0.0,0.0,8.999999999999999e-08,0.0,0.0,0.0,8.999999999999999e-08
1758875641987620720,82771,1758875641979012544,base_link,0.020967745642617573,0.01788583241933235,-0.03965280875026185,-0.9988334002657959,1.0,0.0,0.0,0.0,1.0,0.0,0.0,0.0,1.0,0.0018757416401058435,-0.0005225155036896467,-0.00020954397041350598,1.2184696791468346e-07,0.0,0.0,0.0,1.2184696791468346e-07,0.0,0.0,0.0,1.2184696791468346e-07,0.3250899314880371,-0.4006085991859424,9.794021606445312,8.999999999999999e-08,0.0,0.0,0.0,8.999999999999999e-08,0.0,0.0,0.0,8.999999999999999e-08
1758875641995534448,82772,1758875641988012544,base_link,0.020967784002835162,0.017903572126652265,-0.039649563442926444,-0.9988331895315534,1.0,0.0,0.0,0.0,1.0,0.0,0.0,0.0,1.0,0.001515414915047586,-0.0016316378023475409,0.0002501630224287512,1.2184696791468346e-07,0.0,0.0,0.0,1.2184696791468346e-07,0.0,0.0,0.0,1.2184696791468346e-07,0.3166290521621704,-0.45740047097205994,9.815705299377441,8.999999999999999e-08,0.0,0.0,0.0,8.999999999999999e-08,0.0,0.0,0.0,8.999999999999999e-08
1758875642006177808,82773,1758875641997012544,base_link,0.020961491774697513,0.017901840648504648,-0.039648762652804787,-0.9988334002657959,1.0,0.0,0.0,0.0,1.0,0.0,0.0,0.0,1.0,0.0005818225909024477,-0.0013056250754743814,0.0007913783192634584,1.2184696791468346e-07,0.0,0.0,0.0,1.2184696791468346e-07,0.0,0.0,0.0,1.2184696791468346e-07,0.3500972390174866,-0.4561316370964038,9.794625282287598,8.999999999999999e-08,0.0,0.0,0.0,8.999999999999999e-08,0.0,0.0,0.0,8.999999999999999e-08
1758875642013402416,82774,1758875642003012544,base_link,0.020960844590082295,0.017903815458847963,-0.03966587427330022,-0.9988327259162197,1.0,0.0,0.0,0.0,1.0,0.0,0.0,0.0,1.0,-0.00022932980209589005,0.000500039663165808,0.0028129101265221834,1.2184696791468346e-07,0.0,0.0,0.0,1.2184696791468346e-07,0.0,0.0,0.0,1.2184696791468346e-07,0.31927645206451416,-0.4232856035232532,9.76548957824707,8.999999999999999e-08,0.0,0.0,0.0,8.999999999999999e-08,0.0,0.0,0.0,8.999999999999999e-08
1758875642017117904,82775,1758875642008012544,base_link,0.020956730333268673,0.017896663336219018,-0.039669330314878015,-0.9988328102099168,1.0,0.0,0.0,0.0,1.0,0.0,0.0,0.0,1.0,-0.000817776657640934,0.0008684627246111629,-0.001348801190033555,1.2184696791468346e-07,0.0,0.0,0.0,1.2184696791468346e-07,0.0,0.0,0.0,1.2184696791468346e-07,0.3274408280849457,-0.4386160671710956,9.804116249084473,8.999999999999999e-08,0.0,0.0,0.0,8.999999999999999e-08,0.0,0.0,0.0,8.999999999999999e-08
1758875642024741296,82776,1758875642018012544,base_link,0.020970244983661495,0.017893817106855517,-0.039660142301902714,-0.9988328945036138,1.0,0.0,0.0,0.0,1.0,0.0,0.0,0.0,1.0,-0.001561489887535572,0.0014162791194394229,-0.002194393426179886,1.2184696791468346e-07,0.0,0.0,0.0,1.2184696791468346e-07,0.0,0.0,0.0,1.2184696791468346e-07,0.36305099725723267,-0.41226106882095215,9.817359924316406,8.999999999999999e-08,0.0,0.0,0.0,8.999999999999999e-08,0.0,0.0,0.0,8.999999999999999e-08
1758875642032068144,82777,1758875642023012544,base_link,0.020963654764133983,0.017889359583717106,-0.03966153314790353,-0.9988331052378564,1.0,0.0,0.0,0.0,1.0,0.0,0.0,0.0,1.0,0.0014732310082763433,-0.0008007416035979986,0.00038537109503522526,1.2184696791468346e-07,0.0,0.0,0.0,1.2184696791468346e-07,0.0,0.0,0.0,1.2184696791468346e-07,0.3544899821281433,-0.37632763385772583,9.776224136352539,8.999999999999999e-08,0.0,0.0,0.0,8.999999999999999e-08,0.0,0.0,0.0,8.999999999999999e-08
1758875642048648304,82778,1758875642037012544,base_link,0.020957597636385685,0.017892498042206027,-0.039641302660618334,-0.9988339481748266,1.0,0.0,0.0,0.0,1.0,0.0,0.0,0.0,1.0,-0.00045340112410485744,0.0005982739385217425,-0.002373290713876486,1.2184696791468346e-07,0.0,0.0,0.0,1.2184696791468346e-07,0.0,0.0,0.0,1.2184696791468346e-07,0.32698455452919006,-0.4385964274406421,9.804780006408691,8.999999999999999e-08,0.0,0.0,0.0,8.999999999999999e-08,0.0,0.0,0.0,8.999999999999999e-08
1758875642055938160,82779,1758875642048012544,base_link,0.020948766225261383,0.01788521091795294,-0.039652471575473705,-0.998833821734281,1.0,0.0,0.0,0.0,1.0,0.0,0.0,0.0,1.0,0.0012869553174823523,0.001609188271686435,0.0014349137200042603,1.2184696791468346e-07,0.0,0.0,0.0,1.2184696791468346e-07,0.0,0.0,0.0,1.2184696791468346e-07,0.3108317255973816,-0.3799522221088397,9.750964164733887,8.999999999999999e-08,0.0,0.0,0.0,8.999999999999999e-08,0.0,0.0,0.0,8.999999999999999e-08
1758875642084604080,82780,1758875642076011264,base_link,0.02095831577917164,0.017879725900745956,-0.039672659915910444,-0.9988329366504624,1.0,0.0,0.0,0.0,1.0,0.0,0.0,0.0,1.0,-0.0027670366689562798,0.0010346695780754092,0.001864224439486861,1.2184696791468346e-07,0.0,0.0,0.0,1.2184696791468346e-07,0.0,0.0,0.0,1.2184696791468346e-07,0.3162138760089874,-0.39939084649085876,9.767555236816406,8.999999999999999e-08,0.0,0.0,0.0,8.999999999999999e-08,0.0,0.0,0.0,8.999999999999999e-08
1758875642086501104,82781,1758875642082011264,base_link,0.020964197075536307,0.017871220963061485,-0.03966423054620823,-0.9988332738252504,1.0,0.0,0.0,0.0,1.0,0.0,0.0,0.0,1.0,-0.0003024775069206953,0.002021047985181213,0.0021527311764657493,1.2184696791468346e-07,0.0,0.0,0.0,1.2184696791468346e-07,0.0,0.0,0.0,1.2184696791468346e-07,0.31602752208709717,-0.4397500455379474,9.779560089111328,8.999999999999999e-08,0.0,0.0,0.0,8.999999999999999e-08,0.0,0.0,0.0,8.999999999999999e-08
1758875642097119408,82782,1758875642093011264,base_link,0.02095118538851146,0.017863003809327004,-0.03968892859943566,-0.9988327680630683,1.0,0.0,0.0,0.0,1.0,0.0,0.0,0.0,1.0,0.0025103078223764896,0.0010915924794971947,0.0030983523465692997,1.2184696791468346e-07,0.0,0.0,0.0,1.2184696791468346e-07,0.0,0.0,0.0,1.2184696791468346e-07,0.3053913414478302,-0.3462608158588397,9.793603897094727,8.999999999999999e-08,0.0,0.0,0.0,8.999999999999999e-08,0.0,0.0,0.0,8.999999999999999e-08
1758875642104517232,82783,1758875642097011264,base_link,0.020948062570454604,0.017859778258326905,-0.039692932550044156,-0.9988327259162197,1.0,0.0,0.0,0.0,1.0,0.0,0.0,0.0,1.0,0.00323712476529181,0.0007604826241731649,0.004215544555336237,1.2184696791468346e-07,0.0,0.0,0.0,1.2184696791468346e-07,0.0,0.0,0.0,1.2184696791468346e-07,0.3441714644432068,-0.41309130191802856,9.825281143188477,8.999999999999999e-08,0.0,0.0,0.0,8.999999999999999e-08,0.0,0.0,0.0,8.999999999999999e-08
1758875642110686448,82784,1758875642102011264,base_link,0.020935186708234525,0.01786353723037847,-0.03970241559095914,-0.9988325151819772,1.0,0.0,0.0,0.0,1.0,0.0,0.0,0.0,1.0,0.002763188211247325,-6.653042510151889e-05,-0.0020967433229088783,1.2184696791468346e-07,0.0,0.0,0.0,1.2184696791468346e-07,0.0,0.0,0.0,1.2184696791468346e-07,0.2994082272052765,-0.456010043621062,9.803729057312012,8.999999999999999e-08,0.0,0.0,0.0,8.999999999999999e-08,0.0,0.0,0.0,8.999999999999999e-08
1758875642116437712,82785,1758875642112011264,base_link,0.0209447461403124,0.017855452937998475,-0.03968724272549522,-0.9988331052378564,1.0,0.0,0.0,0.0,1.0,0.0,0.0,0.0,1.0,-0.0036533582024276257,0.0007818271405994888,-0.0035459944047033787,1.2184696791468346e-07,0.0,0.0,0.0,1.2184696791468346e-07,0.0,0.0,0.0,1.2184696791468346e-07,0.34388116002082825,-0.357327342033385,9.801974296569824,8.999999999999999e-08,0.0,0.0,0.0,8.999999999999999e-08,0.0,0.0,0.0,8.999999999999999e-08
1758875642124679344,82786,1758875642120011264,base_link,0.020959759473369265,0.017858162354740442,-0.0396749779925785,-0.9988332316784019,1.0,0.0,0.0,0.0,1.0,0.0,0.0,0.0,1.0,0.0008509049657732248,0.00035793520510196686,-4.2949686758220236e-05,1.2184696791468346e-07,0.0,0.0,0.0,1.2184696791468346e-07,0.0,0.0,0.0,1.2184696791468346e-07,0.35458439588546753,-0.4102779924869525,9.793160438537598,8.999999999999999e-08,0.0,0.0,0.0,8.999999999999999e-08,0.0,0.0,0.0,8.999999999999999e-08
1758875642131466928,82787,1758875642126011264,base_link,0.020960398920086516,0.017859796203664745,-0.03967371358712317,-0.9988331473847049,1.0,0.0,0.0,0.0,1.0,0.0,0.0,0.0,1.0,-0.0012476150877773762,-0.001762952422723174,-0.00014474650379270293,1.2184696791468346e-07,0.0,0.0,0.0,1.2184696791468346e-07,0.0,0.0,0.0,1.2184696791468346e-07,0.31135353446006775,-0.44553995132446167,9.79161548614502,8.999999999999999e-08,0.0,0.0,0.0,8.999999999999999e-08,0.0,0.0,0.0,8.999999999999999e-08
1758875642140847120,82788,1758875642135011264,base_link,0.02095856964807947,0.017873713718660325,-0.039672280594273794,-0.9988330630910078,1.0,0.0,0.0,0.0,1.0,0.0,0.0,0.0,1.0,0.002242713700979948,0.001441320520825684,-0.0007744666654616596,1.2184696791468346e-07,0.0,0.0,0.0,1.2184696791468346e-07,0.0,0.0,0.0,1.2184696791468346e-07,0.3340825140476227,-0.41006594896316406,9.782705307006836,8.999999999999999e-08,0.0,0.0,0.0,8.999999999999999e-08,0.0,0.0,0.0,8.999999999999999e-08
1758875642156791696,82789,1758875642150011264,base_link,0.020964932505115597,0.01786335481354976,-0.03966545280481506,-0.9988334002657959,1.0,0.0,0.0,0.0,1.0,0.0,0.0,0.0,1.0,-0.00010879896581172943,0.0006020981818437576,5.2082934416830465e-05,1.2184696791468346e-07,0.0,0.0,0.0,1.2184696791468346e-07,0.0,0.0,0.0,1.2184696791468346e-07,0.31760841608047485,-0.46065735816955444,9.786810874938965,8.999999999999999e-08,0.0,0.0,0.0,8.999999999999999e-08,0.0,0.0,0.0,8.999999999999999e-08
1758875642161511728,82790,1758875642154009984,base_link,0.020947870275458275,0.017853024225853033,-0.03967190127263725,-0.9988336952937356,1.0,0.0,0.0,0.0,1.0,0.0,0.0,0.0,1.0,0.0042517418041825294,0.000576078426092863,-0.000692396890372038,1.2184696791468346e-07,0.0,0.0,0.0,1.2184696791468346e-07,0.0,0.0,0.0,1.2184696791468346e-07,0.35476216673851013,-0.4090042412281024,9.796895027160645,8.999999999999999e-08,0.0,0.0,0.0,8.999999999999999e-08,0.0,0.0,0.0,8.999999999999999e-08
1758875642170568624,82791,1758875642165009984,base_link,0.020938929710581772,0.017853783033762356,-0.039683618096523265,-0.9988333581189475,1.0,0.0,0.0,0.0,1.0,0.0,0.0,0.0,1.0,0.0014254692941904068,0.0008372294250875716,0.0032754873391240835,1.2184696791468346e-07,0.0,0.0,0.0,1.2184696791468346e-07,0.0,0.0,0.0,1.2184696791468346e-07,0.35476216673851013,-0.4090042412281024,9.796895027160645,8.999999999999999e-08,0.0,0.0,0.0,8.999999999999999e-08,0.0,0.0,0.0,8.999999999999999e-08
1758875642176806000,82792,1758875642169009984,base_link,0.020949230663775638,0.01785467997138223,-0.03969149955719478,-0.9988328102099168,1.0,0.0,0.0,0.0,1.0,0.0,0.0,0.0,1.0,-0.003709103912115097,-0.001067153876647353,0.0014445766573771837,1.2184696791468346e-07,0.0,0.0,0.0,1.2184696791468346e-07,0.0,0.0,0.0,1.2184696791468346e-07,0.290236234664917,-0.44205957651138184,9.783522605895996,8.999999999999999e-08,0.0,0.0,0.0,8.999999999999999e-08,0.0,0.0,0.0,8.999999999999999e-08
1758875642183414992,82793,1758875642178009984,base_link,0.020949867640950984,0.01786264621965917,-0.03967759109718624,-0.9988332316784019,1.0,0.0,0.0,0.0,1.0,0.0,0.0,0.0,1.0,-0.0002888597082346678,0.00014521228149533234,-0.0032021901570260525,1.2184696791468346e-07,0.0,0.0,0.0,1.2184696791468346e-07,0.0,0.0,0.0,1.2184696791468346e-07,0.3285573422908783,-0.45069524645805237,9.809032440185547,8.999999999999999e-08,0.0,0.0,0.0,8.999999999999999e-08,0.0,0.0,0.0,8.999999999999999e-08
1758875642202458768,82794,1758875642184009984,base_link,0.020940867477796513,0.01785701879220233,-0.039667054385058534,-0.9988339060279781,1.0,0.0,0.0,0.0,1.0,0.0,0.0,0.0,1.0,-0.0015251822769641876,0.00016734935343265517,-0.0013306757900863886,1.2184696791468346e-07,0.0,0.0,0.0,1.2184696791468346e-07,0.0,0.0,0.0,1.2184696791468346e-07,0.3688441812992096,-0.4170849323272693,9.81954288482666,8.999999999999999e-08,0.0,0.0,0.0,8.999999999999999e-08,0.0,0.0,0.0,8.999999999999999e-08
1758875642204005552,82795,1758875642195009984,base_link,0.02094521601181885,0.017858312667524388,-0.039669119580635466,-0.9988336952937354,1.0,0.0,0.0,0.0,1.0,0.0,0.0,0.0,1.0,1.5415018424391747e-05,0.0006293265614658596,0.0017075352370738983,1.2184696791468346e-07,0.0,0.0,0.0,1.2184696791468346e-07,0.0,0.0,0.0,1.2184696791468346e-07,0.3517311215400696,-0.45942166447639343,9.820481300354004,8.999999999999999e-08,0.0,0.0,0.0,8.999999999999999e-08,0.0,0.0,0.0,8.999999999999999e-08
1758875642211683280,82796,1758875642208009984,base_link,0.02094008446837652,0.01785166153262989,-0.03966756014724061,-0.9988339903216751,1.0,0.0,0.0,0.0,1.0,0.0,0.0,0.0,1.0,-0.0003431197255849838,0.00013567693531513217,0.00018492282833904025,1.2184696791468346e-07,0.0,0.0,0.0,1.2184696791468346e-07,0.0,0.0,0.0,1.2184696791468346e-07,0.34719038009643555,-0.38739481568336365,9.790305137634277,8.999999999999999e-08,0.0,0.0,0.0,8.999999999999999e-08,0.0,0.0,0.0,8.999999999999999e-08
1758875642225379280,82797,1758875642214009984,base_link,0.020949804749950472,0.017850080861174605,-0.039670173251848295,-0.998833737440584,1.0,0.0,0.0,0.0,1.0,0.0,0.0,0.0,1.0,0.0019747267942875624,0.0008111542556434875,0.0040505495853722095,1.2184696791468346e-07,0.0,0.0,0.0,1.2184696791468346e-07,0.0,0.0,0.0,1.2184696791468346e-07,0.3647722899913788,-0.405997574329375,9.799898147583008,8.999999999999999e-08,0.0,0.0,0.0,8.999999999999999e-08,0.0,0.0,0.0,8.999999999999999e-08
1758875642233751312,82798,1758875642229009984,base_link,0.020925541994642863,0.017854892845894435,-0.03967544160791212,-0.9988339481748265,1.0,0.0,0.0,0.0,1.0,0.0,0.0,0.0,1.0,0.0015004676533862948,0.0006476836279034611,-0.002937487792223692,1.2184696791468346e-07,0.0,0.0,0.0,1.2184696791468346e-07,0.0,0.0,0.0,1.2184696791468346e-07,0.3591819703578949,-0.3731659352779376,9.783474922180176,8.999999999999999e-08,0.0,0.0,0.0,8.999999999999999e-08,0.0,0.0,0.0,8.999999999999999e-08
1758875642241612912,82799,1758875642238009984,base_link,0.02093877050744697,0.017852722612468376,-0.039674261496153815,-0.9988337795874325,1.0,0.0,0.0,0.0,1.0,0.0,0.0,0.0,1.0,-0.0018567182123661041,-0.0003092275001108648,-0.0011734864674508572,1.2184696791468346e-07,0.0,0.0,0.0,1.2184696791468346e-07,0.0,0.0,0.0,1.2184696791468346e-07,0.33930203318595886,-0.37430596351623413,9.824996948242188,8.999999999999999e-08,0.0,0.0,0.0,8.999999999999999e-08,0.0,0.0,0.0,8.999999999999999e-08
1758875642251687920,82800,1758875642244009984,base_link,0.02093216201330936,0.017850448658282312,-0.039676663866519,-0.998833821734281,1.0,0.0,0.0,0.0,1.0,0.0,0.0,0.0,1.0,0.00011353055015206337,0.0006812952924519778,0.0011034480994567275,1.2184696791468346e-07,0.0,0.0,0.0,1.2184696791468346e-07,0.0,0.0,0.0,1.2184696791468346e-07,0.27936333417892456,-0.4442656338214862,9.790132522583008,8.999999999999999e-08,0.0,0.0,0.0,8.999999999999999e-08,0.0,0.0,0.0,8.999999999999999e-08
1758875642264799632,82801,1758875642259005888,base_link,0.0209295502257907,0.01784829258356318,-0.03966591642014874,-0.9988343696433116,1.0,0.0,0.0,0.0,1.0,0.0,0.0,0.0,1.0,0.0030146862845867872,0.0003670589067041875,0.001003855373710394,1.2184696791468346e-07,0.0,0.0,0.0,1.2184696791468346e-07,0.0,0.0,0.0,1.2184696791468346e-07,0.35567864775657654,-0.3981542587280262,9.722641944885254,8.999999999999999e-08,0.0,0.0,0.0,8.999999999999999e-08,0.0,0.0,0.0,8.999999999999999e-08
1758875642276527824,82802,1758875642269005888,base_link,0.020935057798147087,0.01784061181433045,-0.039674725111487494,-0.998834074615372,1.0,0.0,0.0,0.0,1.0,0.0,0.0,0.0,1.0,-0.0013300329446792603,0.001244821469299495,-0.00229395623318851,1.2184696791468346e-07,0.0,0.0,0.0,1.2184696791468346e-07,0.0,0.0,0.0,1.2184696791468346e-07,0.32545188069343567,-0.48627272248268005,9.811481475830078,8.999999999999999e-08,0.0,0.0,0.0,8.999999999999999e-08,0.0,0.0,0.0,8.999999999999999e-08
1758875642282858672,82803,1758875642274005888,base_link,0.02093544518695391,0.01783987144566735,-0.03968273301270454,-0.998833737440584,1.0,0.0,0.0,0.0,1.0,0.0,0.0,0.0,1.0,0.000224624527618289,-0.00019076070748269596,-0.0032024821266531944,1.2184696791468346e-07,0.0,0.0,0.0,1.2184696791468346e-07,0.0,0.0,0.0,1.2184696791468346e-07,0.35164356231689453,-0.4536134302616107,9.790282249450684,8.999999999999999e-08,0.0,0.0,0.0,8.999999999999999e-08,0.0,0.0,0.0,8.999999999999999e-08
1758875642290672336,82804,1758875642279005888,base_link,0.020930519603306455,0.017843058471813732,-0.03967295494385003,-0.9988341589090691,1.0,0.0,0.0,0.0,1.0,0.0,0.0,0.0,1.0,0.0007490736898034811,0.002485387492924929,0.0026737307198345657,1.2184696791468346e-07,0.0,0.0,0.0,1.2184696791468346e-07,0.0,0.0,0.0,1.2184696791468346e-07,0.33051320910453796,-0.3960171639919269,9.792679786682129,8.999999999999999e-08,0.0,0.0,0.0,8.999999999999999e-08,0.0,0.0,0.0,8.999999999999999e-08
1758875642296493968,82805,1758875642289005888,base_link,0.020931660367030407,0.01782898652813103,-0.03968260657215895,-0.9988339481748265,1.0,0.0,0.0,0.0,1.0,0.0,0.0,0.0,1.0,-0.00027871248312294483,0.0014534934889525177,0.0015636155148968098,1.2184696791468346e-07,0.0,0.0,0.0,1.2184696791468346e-07,0.0,0.0,0.0,1.2184696791468346e-07,0.31191787123680115,-0.45265498757362244,9.822355270385742,8.999999999999999e-08,0.0,0.0,0.0,8.999999999999999e-08,0.0,0.0,0.0,8.999999999999999e-08
1758875642308605008,82806,1758875642302005888,base_link,0.020930021743658416,0.01783919676681892,-0.03967653742597347,-0.9988341167622206,1.0,0.0,0.0,0.0,1.0,0.0,0.0,0.0,1.0,0.0004295490216463804,-0.0002734882291406394,-0.0007989627774804831,1.2184696791468346e-07,0.0,0.0,0.0,1.2184696791468346e-07,0.0,0.0,0.0,1.2184696791468346e-07,0.3435376286506653,-0.35733470320701477,9.80324649810791,8.999999999999999e-08,0.0,0.0,0.0,8.999999999999999e-08,0.0,0.0,0.0,8.999999999999999e-08
1758875642310533040,82807,1758875642307005888,base_link,0.020933398924531478,0.017838901574243216,-0.039682985893795604,-0.998833821734281,1.0,0.0,0.0,0.0,1.0,0.0,0.0,0.0,1.0,-0.001251034438610077,2.6024645194411522e-05,0.0019888775423169136,1.2184696791468346e-07,0.0,0.0,0.0,1.2184696791468346e-07,0.0,0.0,0.0,1.2184696791468346e-07,0.3231896162033081,-0.427696108818053,9.797895431518555,8.999999999999999e-08,0.0,0.0,0.0,8.999999999999999e-08,0.0,0.0,0.0,8.999999999999999e-08
1758875642321806768,82808,1758875642317005888,base_link,0.02093613781114018,0.017824156104164976,-0.039673671440274665,-0.9988343696433116,1.0,0.0,0.0,0.0,1.0,0.0,0.0,0.0,1.0,-0.0006867379415780306,0.0018668768461793661,-0.0003914400003850462,1.2184696791468346e-07,0.0,0.0,0.0,1.2184696791468346e-07,0.0,0.0,0.0,1.2184696791468346e-07,0.3402773439884186,-0.43453770875930664,9.781760215759277,8.999999999999999e-08,0.0,0.0,0.0,8.999999999999999e-08,0.0,0.0,0.0,8.999999999999999e-08
1758875642326547504,82809,1758875642322005888,base_link,0.020941137974953165,0.01782337325938111,-0.03965154434480647,-0.9988350861397364,1.0,0.0,0.0,0.0,1.0,0.0,0.0,0.0,1.0,-0.0010866918601095676,0.0013353877002373331,-0.005360853858292103,1.2184696791468346e-07,0.0,0.0,0.0,1.2184696791468346e-07,0.0,0.0,0.0,1.2184696791468346e-07,0.33984485268592834,-0.4106749594211566,9.788049697875977,8.999999999999999e-08,0.0,0.0,0.0,8.999999999999999e-08,0.0,0.0,0.0,8.999999999999999e-08
1758875642334504528,82810,1758875642331005888,base_link,0.02094163912732374,0.017830908984185958,-0.03966389337142015,-0.9988344539370088,1.0,0.0,0.0,0.0,1.0,0.0,0.0,0.0,1.0,-0.0012553180567920208,-0.00022249366156756872,0.0005159302381798625,1.2184696791468346e-07,0.0,0.0,0.0,1.2184696791468346e-07,0.0,0.0,0.0,1.2184696791468346e-07,0.3281565308570862,-0.4198705255985248,9.796509742736816,8.999999999999999e-08,0.0,0.0,0.0,8.999999999999999e-08,0.0,0.0,0.0,8.999999999999999e-08
1758875642344538672,82811,1758875642340005888,base_link,0.02093151433478576,0.017829943887209508,-0.03965529541432395,-0.9988350439928879,1.0,0.0,0.0,0.0,1.0,0.0,0.0,0.0,1.0,7.952074520289898e-05,-0.0007682833820581436,7.773388642817745e-05,1.2184696791468346e-07,0.0,0.0,0.0,1.2184696791468346e-07,0.0,0.0,0.0,1.2184696791468346e-07,0.3314334452152252,-0.4504159390926349,9.804097175598145,8.999999999999999e-08,0.0,0.0,0.0,8.999999999999999e-08,0.0,0.0,0.0,8.999999999999999e-08
1758875642354810448,82812,1758875642346005888,base_link,0.020948836195615356,0.017843194296618504,-0.039656559819779225,-0.9988343696433116,1.0,0.0,0.0,0.0,1.0,0.0,0.0,0.0,1.0,-0.004232238046824932,-0.0017243095207959416,-0.001939348643645644,1.2184696791468346e-07,0.0,0.0,0.0,1.2184696791468346e-07,0.0,0.0,0.0,1.2184696791468346e-07,0.32427629828453064,-0.38687500357627747,9.78004264831543,8.999999999999999e-08,0.0,0.0,0.0,8.999999999999999e-08,0.0,0.0,0.0,8.999999999999999e-08
1758875642360468336,82813,1758875642356002560,base_link,0.020957704320595977,0.01783463963882368,-0.039655295414323895,-0.9988344539370086,1.0,0.0,0.0,0.0,1.0,0.0,0.0,0.0,1.0,0.0008343937806785107,-0.0007821323815733194,0.00017817062325775634,1.2184696791468346e-07,0.0,0.0,0.0,1.2184696791468346e-07,0.0,0.0,0.0,1.2184696791468346e-07,0.30809536576271057,-0.4203890264034259,9.799482345581055,8.999999999999999e-08,0.0,0.0,0.0,8.999999999999999e-08,0.0,0.0,0.0,8.999999999999999e-08
1758875642372155504,82814,1758875642361002560,base_link,0.020934466260542794,0.017837257353242913,-0.03964909982759283,-0.9988351704334334,1.0,0.0,0.0,0.0,1.0,0.0,0.0,0.0,1.0,0.0009135785512626171,-0.0008600431028753522,-0.0028578732162714005,1.2184696791468346e-07,0.0,0.0,0.0,1.2184696791468346e-07,0.0,0.0,0.0,1.2184696791468346e-07,0.3255573511123657,-0.45810577273368713,9.77595329284668,8.999999999999999e-08,0.0,0.0,0.0,8.999999999999999e-08,0.0,0.0,0.0,8.999999999999999e-08
1758875642387448112,82815,1758875642376002560,base_link,0.020932211733419713,0.017827170756286394,-0.039636961535221754,-0.9988358447830096,1.0,0.0,0.0,0.0,1.0,0.0,0.0,0.0,1.0,0.004707400221377611,0.0009922744939103723,-0.00027551548555493366,1.2184696791468346e-07,0.0,0.0,0.0,1.2184696791468346e-07,0.0,0.0,0.0,1.2184696791468346e-07,0.32186979055404663,-0.35170859098434326,9.80293083190918,8.999999999999999e-08,0.0,0.0,0.0,8.999999999999999e-08,0.0,0.0,0.0,8.999999999999999e-08
1758875642393660976,82816,1758875642386002560,base_link,0.020908131230304692,0.017824675037237267,-0.03963316831885571,-0.9988365191325858,1.0,0.0,0.0,0.0,1.0,0.0,0.0,0.0,1.0,0.004863624460995197,0.0011751315323635936,-4.559755325317527e-06,1.2184696791468346e-07,0.0,0.0,0.0,1.2184696791468346e-07,0.0,0.0,0.0,1.2184696791468346e-07,0.32275909185409546,-0.46764421463012573,9.802959442138672,8.999999999999999e-08,0.0,0.0,0.0,8.999999999999999e-08,0.0,0.0,0.0,8.999999999999999e-08
1758875642398442704,82817,1758875642391002560,base_link,0.02091459418610603,0.017829644414094504,-0.03962671985103351,-0.9988365612794342,1.0,0.0,0.0,0.0,1.0,0.0,0.0,0.0,1.0,0.000612650765106082,-0.00025096721947193184,-0.003140875604003668,1.2184696791468346e-07,0.0,0.0,0.0,1.2184696791468346e-07,0.0,0.0,0.0,1.2184696791468346e-07,0.3496582508087158,-0.4065089225769031,9.798166275024414,8.999999999999999e-08,0.0,0.0,0.0,8.999999999999999e-08,0.0,0.0,0.0,8.999999999999999e-08
1758875642412352688,82818,1758875642406002560,base_link,0.02090082418508024,0.017813930060408892,-0.039620692851696546,-0.9988373620695559,1.0,0.0,0.0,0.0,1.0,0.0,0.0,0.0,1.0,0.002008651616051793,-0.0011873238254338505,-0.002343836473301053,1.2184696791468346e-07,0.0,0.0,0.0,1.2184696791468346e-07,0.0,0.0,0.0,1.2184696791468346e-07,0.31054145097732544,-0.466849088668822,9.806337356567383,8.999999999999999e-08,0.0,0.0,0.0,8.999999999999999e-08,0.0,0.0,0.0,8.999999999999999e-08
1758875642416748816,82819,1758875642410002560,base_link,0.02090594815526073,0.017818499865385914,-0.03961812189393732,-0.9988373199227074,1.0,0.0,0.0,0.0,1.0,0.0,0.0,0.0,1.0,0.0009067582432180643,0.000573704252019524,-0.004027019254863262,1.2184696791468346e-07,0.0,0.0,0.0,1.2184696791468346e-07,0.0,0.0,0.0,1.2184696791468346e-07,0.34244218468666077,-0.46568953990936157,9.758965492248535,8.999999999999999e-08,0.0,0.0,0.0,8.999999999999999e-08,0.0,0.0,0.0,8.999999999999999e-08
1758875642425438160,82820,1758875642421002560,base_link,0.020908345751178167,0.01781243812782606,-0.03962376957163774,-0.9988371513353134,1.0,0.0,0.0,0.0,1.0,0.0,0.0,0.0,1.0,-0.001028038328513503,0.0012984344502910974,0.0009705762495286762,1.2184696791468346e-07,0.0,0.0,0.0,1.2184696791468346e-07,0.0,0.0,0.0,1.2184696791468346e-07,0.3496488034725189,-0.3732902407646167,9.798057556152344,8.999999999999999e-08,0.0,0.0,0.0,8.999999999999999e-08,0.0,0.0,0.0,8.999999999999999e-08
1758875642437578672,82821,1758875642425002560,base_link,0.02090791802652023,0.017807423640670023,-0.03961285353787349,-0.998837614950647,1.0,0.0,0.0,0.0,1.0,0.0,0.0,0.0,1.0,-0.0008386252447962761,4.1898805648088394e-05,-0.0005180845037102699,1.2184696791468346e-07,0.0,0.0,0.0,1.2184696791468346e-07,0.0,0.0,0.0,1.2184696791468346e-07,0.30695459246635437,-0.4229069352149951,9.794861793518066,8.999999999999999e-08,0.0,0.0,0.0,8.999999999999999e-08,0.0,0.0,0.0,8.999999999999999e-08
1758875642440619920,82822,1758875642436002560,base_link,0.02090756027221627,0.01781028649828235,-0.03959489898040784,-0.9988382893002232,1.0,0.0,0.0,0.0,1.0,0.0,0.0,0.0,1.0,0.0005352422595024109,6.6736247390505314e-06,-0.0027244105003774166,1.2184696791468346e-07,0.0,0.0,0.0,1.2184696791468346e-07,0.0,0.0,0.0,1.2184696791468346e-07,0.3432581424713135,-0.38323807716369507,9.81881332397461,8.999999999999999e-08,0.0,0.0,0.0,8.999999999999999e-08,0.0,0.0,0.0,8.999999999999999e-08
1758875642458441456,82823,1758875642451002560,base_link,0.02092090024367835,0.017823538554052616,-0.03960880744041643,-0.998837277775859,1.0,0.0,0.0,0.0,1.0,0.0,0.0,0.0,1.0,-0.0005958641413599253,-0.0004586745053529736,0.002837585983797908,1.2184696791468346e-07,0.0,0.0,0.0,1.2184696791468346e-07,0.0,0.0,0.0,1.2184696791468346e-07,0.28155961632728577,-0.447733014822005,9.780858039855957,8.999999999999999e-08,0.0,0.0,0.0,8.999999999999999e-08,0.0,0.0,0.0,8.999999999999999e-08
1758875642464742544,82824,1758875642455000256,base_link,0.02091951351358066,0.017816851528482433,-0.039613696474843654,-0.9988371934821619,1.0,0.0,0.0,0.0,1.0,0.0,0.0,0.0,1.0,-0.0007866183295845985,-0.0008495058864355087,-0.000346753280609846,1.2184696791468346e-07,0.0,0.0,0.0,1.2184696791468346e-07,0.0,0.0,0.0,1.2184696791468346e-07,0.33600643277168274,-0.4709528386592853,9.767457962036133,8.999999999999999e-08,0.0,0.0,0.0,8.999999999999999e-08,0.0,0.0,0.0,8.999999999999999e-08
1758875642468845616,82825,1758875642464000256,base_link,0.02091963468577013,0.01781975702685165,-0.03961120981078156,-0.9988372356290105,1.0,0.0,0.0,0.0,1.0,0.0,0.0,0.0,1.0,-0.001672907266765833,0.0008480811957269906,-0.00046343368012458097,1.2184696791468346e-07,0.0,0.0,0.0,1.2184696791468346e-07,0.0,0.0,0.0,1.2184696791468346e-07,0.3793378174304962,-0.4092380106449115,9.754322052001953,8.999999999999999e-08,0.0,0.0,0.0,8.999999999999999e-08,0.0,0.0,0.0,8.999999999999999e-08
1758875642479537616,82826,1758875642470000256,base_link,0.020931071792876395,0.01779490931938483,-0.039613738621692166,-0.9988373199227074,1.0,0.0,0.0,0.0,1.0,0.0,0.0,0.0,1.0,-0.0010409709066152573,0.0034565045498311524,0.0030444222502410407,1.2184696791468346e-07,0.0,0.0,0.0,1.2184696791468346e-07,0.0,0.0,0.0,1.2184696791468346e-07,0.33178117871284485,-0.3915699720382678,9.767895698547363,8.999999999999999e-08,0.0,0.0,0.0,8.999999999999999e-08,0.0,0.0,0.0,8.999999999999999e-08
1758875642488142320,82827,1758875642481000256,base_link,0.0209137871398115,0.017803148205088073,-0.039605941454717734,-0.998837867831738,1.0,0.0,0.0,0.0,1.0,0.0,0.0,0.0,1.0,0.006291037425398827,0.001172009157016873,-0.0034940922632813454,1.2184696791468346e-07,0.0,0.0,0.0,1.2184696791468346e-07,0.0,0.0,0.0,1.2184696791468346e-07,0.33026182651519775,-0.4408801496028888,9.778904914855957,8.999999999999999e-08,0.0,0.0,0.0,8.999999999999999e-08,0.0,0.0,0.0,8.999999999999999e-08
1758875642495944720,82828,1758875642485000256,base_link,0.020906468240785906,0.01780469035168964,-0.039606447216899814,-0.9988379521254351,1.0,0.0,0.0,0.0,1.0,0.0,0.0,0.0,1.0,0.0003258208744227886,-0.001601409399881959,-0.0004261527210474012,1.2184696791468346e-07,0.0,0.0,0.0,1.2184696791468346e-07,0.0,0.0,0.0,1.2184696791468346e-07,0.37749192118644714,-0.4070790410041797,9.813111305236816,8.999999999999999e-08,0.0,0.0,0.0,8.999999999999999e-08,0.0,0.0,0.0,8.999999999999999e-08
1758875642502596848,82829,1758875642496000256,base_link,0.020909450788862558,0.01781375916810907,-0.03960973467108362,-0.998837614950647,1.0,0.0,0.0,0.0,1.0,0.0,0.0,0.0,1.0,0.0002852012403309345,-0.0015209808479994535,0.0006816303357481959,1.2184696791468346e-07,0.0,0.0,0.0,1.2184696791468346e-07,0.0,0.0,0.0,1.2184696791468346e-07,0.31693699955940247,-0.4533532857894885,9.79149055480957,8.999999999999999e-08,0.0,0.0,0.0,8.999999999999999e-08,0.0,0.0,0.0,8.999999999999999e-08
1758875642518136816,82830,1758875642511000256,base_link,0.020908091223725833,0.017817123342728104,-0.039603539084352546,-0.9988378256848895,1.0,0.0,0.0,0.0,1.0,0.0,0.0,0.0,1.0,-0.001312947366386652,-0.0008925804868340491,0.0005048002931289376,1.2184696791468346e-07,0.0,0.0,0.0,1.2184696791468346e-07,0.0,0.0,0.0,1.2184696791468346e-07,0.34091895818710327,-0.3842910528182971,9.77834415435791,8.999999999999999e-08,0.0,0.0,0.0,8.999999999999999e-08,0.0,0.0,0.0,8.999999999999999e-08
1758875642522540624,82831,1758875642515000256,base_link,0.020906267220074843,0.017811621697272288,-0.03960788020974913,-0.998837783538041,1.0,0.0,0.0,0.0,1.0,0.0,0.0,0.0,1.0,0.001564983045682311,0.00018909620121121417,0.0008939565159380436,1.2184696791468346e-07,0.0,0.0,0.0,1.2184696791468346e-07,0.0,0.0,0.0,1.2184696791468346e-07,0.3563649356365204,-0.3567800521850574,9.810837745666504,8.999999999999999e-08,0.0,0.0,0.0,8.999999999999999e-08,0.0,0.0,0.0,8.999999999999999e-08
1758875642530146128,82832,1758875642520000256,base_link,0.020902950789932644,0.017809150838278335,-0.03960977681793219,-0.9988378256848897,1.0,0.0,0.0,0.0,1.0,0.0,0.0,0.0,1.0,0.00032192678190767765,-0.000723137753084302,-0.00022695097140967838,1.2184696791468346e-07,0.0,0.0,0.0,1.2184696791468346e-07,0.0,0.0,0.0,1.2184696791468346e-07,0.30049458146095276,-0.46486294269561645,9.780984878540039,8.999999999999999e-08,0.0,0.0,0.0,8.999999999999999e-08,0.0,0.0,0.0,8.999999999999999e-08
1758875642544511568,82833,1758875642537000256,base_link,0.020895774630429156,0.017816134702785494,-0.039589251302707414,-0.9988386264750112,1.0,0.0,0.0,0.0,1.0,0.0,0.0,0.0,1.0,0.00020135915838181973,0.00036172103136777883,0.00037708453601226205,1.2184696791468346e-07,0.0,0.0,0.0,1.2184696791468346e-07,0.0,0.0,0.0,1.2184696791468346e-07,0.31179100275039673,-0.42509010434150574,9.77791690826416,8.999999999999999e-08,0.0,0.0,0.0,8.999999999999999e-08,0.0,0.0,0.0,8.999999999999999e-08
1758875642556661552,82834,1758875642553000256,base_link,0.020902736598331424,0.017813279418435007,-0.039569821605543815,-0.998839342971436,1.0,0.0,0.0,0.0,1.0,0.0,0.0,0.0,1.0,0.0007637667004019022,0.002096284879371523,-0.005335839930921793,1.2184696791468346e-07,0.0,0.0,0.0,1.2184696791468346e-07,0.0,0.0,0.0,1.2184696791468346e-07,0.3330850601196289,-0.4398275613784778,9.791097640991211,8.999999999999999e-08,0.0,0.0,0.0,8.999999999999999e-08,0.0,0.0,0.0,8.999999999999999e-08
1758875642582540336,82835,1758875642571999488,base_link,0.020927529481967955,0.01779742956921688,-0.03957698656979075,-0.9988388372092538,1.0,0.0,0.0,0.0,1.0,0.0,0.0,0.0,1.0,-0.004203259479254484,-0.002496125176548958,-0.0015898442361503837,1.2184696791468346e-07,0.0,0.0,0.0,1.2184696791468346e-07,0.0,0.0,0.0,1.2184696791468346e-07,0.33454811573028564,-0.44122317433357117,9.805373191833496,8.999999999999999e-08,0.0,0.0,0.0,8.999999999999999e-08,0.0,0.0,0.0,8.999999999999999e-08
1758875642594779920,82836,1758875642586999488,base_link,0.020927928395303667,0.017798908824817935,-0.039583645771855386,-0.9988385843281627,1.0,0.0,0.0,0.0,1.0,0.0,0.0,0.0,1.0,0.0018097697757184505,0.0019020303152501587,0.003574711270630359,1.2184696791468346e-07,0.0,0.0,0.0,1.2184696791468346e-07,0.0,0.0,0.0,1.2184696791468346e-07,0.3178096115589142,-0.40757563710212585,9.769054412841797,8.999999999999999e-08,0.0,0.0,0.0,8.999999999999999e-08,0.0,0.0,0.0,8.999999999999999e-08
1758875642604677584,82837,1758875642596999488,base_link,0.020927679959388032,0.017807771022897986,-0.0395710860109992,-0.9988388372092538,1.0,0.0,0.0,0.0,1.0,0.0,0.0,0.0,1.0,-0.00044709350913763046,0.000303041888400912,-0.0021636050660163164,1.2184696791468346e-07,0.0,0.0,0.0,1.2184696791468346e-07,0.0,0.0,0.0,1.2184696791468346e-07,0.3380974531173706,-0.43793794512748596,9.803908348083496,8.999999999999999e-08,0.0,0.0,0.0,8.999999999999999e-08,0.0,0.0,0.0,8.999999999999999e-08
1758875642613994224,82838,1758875642601999488,base_link,0.020922251247736477,0.017806764437617535,-0.03958018973027748,-0.9988386686218598,1.0,0.0,0.0,0.0,1.0,0.0,0.0,0.0,1.0,-0.001835037488490343,6.819423288106948e-05,0.0024106791242957115,1.2184696791468346e-07,0.0,0.0,0.0,1.2184696791468346e-07,0.0,0.0,0.0,1.2184696791468346e-07,0.36172914505004883,-0.4193351566791523,9.740038871765137,8.999999999999999e-08,0.0,0.0,0.0,8.999999999999999e-08,0.0,0.0,0.0,8.999999999999999e-08
1758875642621883120,82839,1758875642616999488,base_link,0.020911688852372937,0.017780706489981164,-0.03960433987447426,-0.9988383735939202,1.0,0.0,0.0,0.0,1.0,0.0,0.0,0.0,1.0,0.0016911246348172426,0.002577324397861958,0.004281323403120041,1.2184696791468346e-07,0.0,0.0,0.0,1.2184696791468346e-07,0.0,0.0,0.0,1.2184696791468346e-07,0.31649214029312134,-0.4378612637519824,9.79433822631836,8.999999999999999e-08,0.0,0.0,0.0,8.999999999999999e-08,0.0,0.0,0.0,8.999999999999999e-08
1758875642632504528,82840,1758875642626999488,base_link,0.020907478777333406,0.01778005123819572,-0.039606615804293914,-0.9988383735939201,1.0,0.0,0.0,0.0,1.0,0.0,0.0,0.0,1.0,0.0016782679595053196,0.0015596294542774558,-0.0007691332139074805,1.2184696791468346e-07,0.0,0.0,0.0,1.2184696791468346e-07,0.0,0.0,0.0,1.2184696791468346e-07,0.35882633924484253,-0.3739713728427875,9.821625709533691,8.999999999999999e-08,0.0,0.0,0.0,8.999999999999999e-08,0.0,0.0,0.0,8.999999999999999e-08
1758875642648758192,82841,1758875642631999488,base_link,0.020922964122166366,0.01777672789333619,-0.039603286203261485,-0.9988382471533747,1.0,0.0,0.0,0.0,1.0,0.0,0.0,0.0,1.0,0.0001086047850549221,-0.0015157451853156092,-0.0014793905429542062,1.2184696791468346e-07,0.0,0.0,0.0,1.2184696791468346e-07,0.0,0.0,0.0,1.2184696791468346e-07,0.2978523373603821,-0.39340004324912903,9.802596092224121,8.999999999999999e-08,0.0,0.0,0.0,8.999999999999999e-08,0.0,0.0,0.0,8.999999999999999e-08
1758875642652857072,82842,1758875642642999488,base_link,0.020922114599751067,0.01779268442676461,-0.039602780441079406,-0.9988379942722836,1.0,0.0,0.0,0.0,1.0,0.0,0.0,0.0,1.0,0.0003233226016163826,-0.0016005267389118671,-0.00025974283926188924,1.2184696791468346e-07,0.0,0.0,0.0,1.2184696791468346e-07,0.0,0.0,0.0,1.2184696791468346e-07,0.33694300055503845,-0.42820405960082886,9.783851623535156,8.999999999999999e-08,0.0,0.0,0.0,8.999999999999999e-08,0.0,0.0,0.0,8.999999999999999e-08
1758875642661555728,82843,1758875642646999488,base_link,0.02091394930639659,0.01777706045831272,-0.03960446631501985,-0.9988383314470717,1.0,0.0,0.0,0.0,1.0,0.0,0.0,0.0,1.0,-0.0006427839398384094,0.001846068655140698,-0.0008006703574210408,1.2184696791468346e-07,0.0,0.0,0.0,1.2184696791468346e-07,0.0,0.0,0.0,1.2184696791468346e-07,0.3631191849708557,-0.4036832749843585,9.765867233276367,8.999999999999999e-08,0.0,0.0,0.0,8.999999999999999e-08,0.0,0.0,0.0,8.999999999999999e-08
1758875642676520048,82844,1758875642665999232,base_link,0.02092283899870985,0.017790537571668586,-0.039586216729614564,-0.9988387107687083,1.0,0.0,0.0,0.0,1.0,0.0,0.0,0.0,1.0,-0.0010013512801378965,-0.00150298560038209,-0.003252502763643861,1.2184696791468346e-07,0.0,0.0,0.0,1.2184696791468346e-07,0.0,0.0,0.0,1.2184696791468346e-07,0.33338356018066406,-0.39826652407646057,9.78543472290039,8.999999999999999e-08,0.0,0.0,0.0,8.999999999999999e-08,0.0,0.0,0.0,8.999999999999999e-08
1758875642694026640,82845,1758875642676999232,base_link,0.020934828953930562,0.017784279587845352,-0.03959367672180096,-0.9988382471533747,1.0,0.0,0.0,0.0,1.0,0.0,0.0,0.0,1.0,0.00034027593210339546,0.0006961992476135498,0.004066695459187031,1.2184696791468346e-07,0.0,0.0,0.0,1.2184696791468346e-07,0.0,0.0,0.0,1.2184696791468346e-07,0.32827016711235046,-0.38201865553855774,9.784626007080078,8.999999999999999e-08,0.0,0.0,0.0,8.999999999999999e-08,0.0,0.0,0.0,8.999999999999999e-08
1758875642694035152,82846,1758875642686999232,base_link,0.020926253881255994,0.017779012054962125,-0.03960037807071422,-0.9988382893002232,1.0,0.0,0.0,0.0,1.0,0.0,0.0,0.0,1.0,-0.0004606102593243122,0.0007859116885811093,0.0014843641547486186,1.2184696791468346e-07,0.0,0.0,0.0,1.2184696791468346e-07,0.0,0.0,0.0,1.2184696791468346e-07,0.3265525996685028,-0.45499414205551025,9.807024955749512,8.999999999999999e-08,0.0,0.0,0.0,8.999999999999999e-08,0.0,0.0,0.0,8.999999999999999e-08
1758875642708615280,82847,1758875642701999232,base_link,0.020937032443854274,0.017782840009550903,-0.039616688901088,-0.9988373199227074,1.0,0.0,0.0,0.0,1.0,0.0,0.0,0.0,1.0,-1.499103382229805e-05,0.0017977652605623011,0.0037014724221080537,1.2184696791468346e-07,0.0,0.0,0.0,1.2184696791468346e-07,0.0,0.0,0.0,1.2184696791468346e-07,0.3050975501537323,-0.3929805755615222,9.818802833557129,8.999999999999999e-08,0.0,0.0,0.0,8.999999999999999e-08,0.0,0.0,0.0,8.999999999999999e-08
1758875642725944368,82848,1758875642719999232,base_link,0.020918369127861918,0.01777627580253146,-0.03961824833448291,-0.998837783538041,1.0,0.0,0.0,0.0,1.0,0.0,0.0,0.0,1.0,0.0007936907932162285,4.0058279410004595e-05,-0.00018971192184835672,1.2184696791468346e-07,0.0,0.0,0.0,1.2184696791468346e-07,0.0,0.0,0.0,1.2184696791468346e-07,0.36369818449020386,-0.4441428482532489,9.810995101928711,8.999999999999999e-08,0.0,0.0,0.0,8.999999999999999e-08,0.0,0.0,0.0,8.999999999999999e-08
1758875642736144784,82849,1758875642725999232,base_link,0.02091764588135602,0.017783850546098403,-0.03961302212526748,-0.9988378678317381,1.0,0.0,0.0,0.0,1.0,0.0,0.0,0.0,1.0,-0.0007618884555995464,-0.0012722788378596306,-0.00032185530290007575,1.2184696791468346e-07,0.0,0.0,0.0,1.2184696791468346e-07,0.0,0.0,0.0,1.2184696791468346e-07,0.34925559163093567,-0.40971454977989075,9.813300132751465,8.999999999999999e-08,0.0,0.0,0.0,8.999999999999999e-08,0.0,0.0,0.0,8.999999999999999e-08
1758875642744571472,82850,1758875642736999232,base_link,0.02091663896680332,0.017776983902513668,-0.03960960823053814,-0.9988381628596777,1.0,0.0,0.0,0.0,1.0,0.0,0.0,0.0,1.0,0.00016156397759914398,0.0005777422338724133,-0.0029460845980793238,1.2184696791468346e-07,0.0,0.0,0.0,1.2184696791468346e-07,0.0,0.0,0.0,1.2184696791468346e-07,0.32102975249290466,-0.46146512031555054,9.818695068359375,8.999999999999999e-08,0.0,0.0,0.0,8.999999999999999e-08,0.0,0.0,0.0,8.999999999999999e-08
1758875642754979184,82851,1758875642749999232,base_link,0.020908873903873568,0.017786714062255238,-0.03961534020193559,-0.9988379099785866,1.0,0.0,0.0,0.0,1.0,0.0,0.0,0.0,1.0,0.002295467769727111,-0.0011991988867521282,0.0034482518676668406,1.2184696791468346e-07,0.0,0.0,0.0,1.2184696791468346e-07,0.0,0.0,0.0,1.2184696791468346e-07,0.33673298358917236,-0.40345358848571655,9.789867401123047,8.999999999999999e-08,0.0,0.0,0.0,8.999999999999999e-08,0.0,0.0,0.0,8.999999999999999e-08
1758875642767763632,82852,1758875642755997952,base_link,0.020893387571223845,0.017778018640571835,-0.03962018708951442,-0.9988382050065261,1.0,0.0,0.0,0.0,1.0,0.0,0.0,0.0,1.0,0.00201856205239892,0.0013621166581287978,-0.002306923735886812,1.2184696791468346e-07,0.0,0.0,0.0,1.2184696791468346e-07,0.0,0.0,0.0,1.2184696791468346e-07,0.3389994204044342,-0.45649245381355164,9.808384895324707,8.999999999999999e-08,0.0,0.0,0.0,8.999999999999999e-08,0.0,0.0,0.0,8.999999999999999e-08
1758875642773953520,82853,1758875642766997952,base_link,0.020914581015215872,0.017774677021102202,-0.039616225285754376,-0.998837952125435,1.0,0.0,0.0,0.0,1.0,0.0,0.0,0.0,1.0,-0.006689450237900019,0.0009724562987685205,0.0011437071952968834,1.2184696791468346e-07,0.0,0.0,0.0,1.2184696791468346e-07,0.0,0.0,0.0,1.2184696791468346e-07,0.3613723814487457,-0.4224983751773822,9.775287628173828,8.999999999999999e-08,0.0,0.0,0.0,8.999999999999999e-08,0.0,0.0,0.0,8.999999999999999e-08
1758875642789854384,82854,1758875642781997952,base_link,0.02091969395477585,0.017779152489578454,-0.03960855455932537,-0.9988380364191322,1.0,0.0,0.0,0.0,1.0,0.0,0.0,0.0,1.0,-0.0013554948382079601,0.00020585441961884485,-0.001088031567633152,1.2184696791468346e-07,0.0,0.0,0.0,1.2184696791468346e-07,0.0,0.0,0.0,1.2184696791468346e-07,0.3302336037158966,-0.43973967432975647,9.773324966430664,8.999999999999999e-08,0.0,0.0,0.0,8.999999999999999e-08,0.0,0.0,0.0,8.999999999999999e-08
1758875642792552240,82855,1758875642785997952,base_link,0.020926996719461,0.01778450168198067,-0.03961736325066417,-0.9988374885101015,1.0,0.0,0.0,0.0,1.0,0.0,0.0,0.0,1.0,-0.001898195594549179,0.0016046721721068025,0.0007113684550859032,1.2184696791468346e-07,0.0,0.0,0.0,1.2184696791468346e-07,0.0,0.0,0.0,1.2184696791468346e-07,0.3112170994281769,-0.39885944128036377,9.811713218688965,8.999999999999999e-08,0.0,0.0,0.0,8.999999999999999e-08,0.0,0.0,0.0,8.999999999999999e-08
1758875642799799056,82856,1758875642790997952,base_link,0.020919790760818527,0.017771313834299935,-0.039618838390362066,-0.998837867831738,1.0,0.0,0.0,0.0,1.0,0.0,0.0,0.0,1.0,0.00216533150523901,0.0021969838999211793,0.002151768654584884,1.2184696791468346e-07,0.0,0.0,0.0,1.2184696791468346e-07,0.0,0.0,0.0,1.2184696791468346e-07,0.3036106824874878,-0.3792539834976184,9.799596786499023,8.999999999999999e-08,0.0,0.0,0.0,8.999999999999999e-08,0.0,0.0,0.0,8.999999999999999e-08
1758875642806500496,82857,1758875642800997952,base_link,0.02092097630556902,0.017766946202486866,-0.039624148893274404,-0.9988376992443441,1.0,0.0,0.0,0.0,1.0,0.0,0.0,0.0,1.0,0.0004122478421777487,0.00015393760986626154,0.00039807200664654374,1.2184696791468346e-07,0.0,0.0,0.0,1.2184696791468346e-07,0.0,0.0,0.0,1.2184696791468346e-07,0.3525227904319763,-0.4525390267372119,9.79477596282959,8.999999999999999e-08,0.0,0.0,0.0,8.999999999999999e-08,0.0,0.0,0.0,8.999999999999999e-08
1758875642816036880,82858,1758875642810997952,base_link,0.020907904032449437,0.017772223942809966,-0.039612010600903275,-0.9988382893002232,1.0,0.0,0.0,0.0,1.0,0.0,0.0,0.0,1.0,0.0002591288648545742,-0.0010884269140660765,-0.0018058882560580967,1.2184696791468346e-07,0.0,0.0,0.0,1.2184696791468346e-07,0.0,0.0,0.0,1.2184696791468346e-07,0.355185866355896,-0.38741660118102905,9.789453506469727,8.999999999999999e-08,0.0,0.0,0.0,8.999999999999999e-08,0.0,0.0,0.0,8.999999999999999e-08
1758875642827039184,82859,1758875642815997952,base_link,0.02090414506039787,0.01777637277321026,-0.039614370824419834,-0.9988382050065262,1.0,0.0,0.0,0.0,1.0,0.0,0.0,0.0,1.0,-0.000798279419541359,-0.001119367312639951,0.004677858669310808,1.2184696791468346e-07,0.0,0.0,0.0,1.2184696791468346e-07,0.0,0.0,0.0,1.2184696791468346e-07,0.34481239318847656,-0.37439846992492554,9.817009925842285,8.999999999999999e-08,0.0,0.0,0.0,8.999999999999999e-08,0.0,0.0,0.0,8.999999999999999e-08
1758875642832452048,82860,1758875642825997952,base_link,0.02089896577247871,0.017769982751213175,-0.03964113407322425,-0.9988374042164044,1.0,0.0,0.0,0.0,1.0,0.0,0.0,0.0,1.0,0.0023768420796841383,0.0015944484621286397,0.0028042574413120747,1.2184696791468346e-07,0.0,0.0,0.0,1.2184696791468346e-07,0.0,0.0,0.0,1.2184696791468346e-07,0.32063525915145874,-0.4562517404556262,9.760760307312012,8.999999999999999e-08,0.0,0.0,0.0,8.999999999999999e-08,0.0,0.0,0.0,8.999999999999999e-08
1758875642835349264,82861,1758875642830997952,base_link,0.02089636946075599,0.01776871999211912,-0.039633547640492366,-0.9988377413911925,1.0,0.0,0.0,0.0,1.0,0.0,0.0,0.0,1.0,0.0008468260057270527,0.0023396480828523636,-0.0008288761600852016,1.2184696791468346e-07,0.0,0.0,0.0,1.2184696791468346e-07,0.0,0.0,0.0,1.2184696791468346e-07,0.37196099758148193,-0.42287999391555664,9.81332015991211,8.999999999999999e-08,0.0,0.0,0.0,8.999999999999999e-08,0.0,0.0,0.0,8.999999999999999e-08
1758875642844593520,82862,1758875642835997952,base_link,0.02089954364528447,0.017771016995362963,-0.03961753183805817,-0.9988382471533747,1.0,0.0,0.0,0.0,1.0,0.0,0.0,0.0,1.0,-0.0005046140868216753,0.0007466429378837343,-0.0033124692272394896,1.2184696791468346e-07,0.0,0.0,0.0,1.2184696791468346e-07,0.0,0.0,0.0,1.2184696791468346e-07,0.31762975454330444,-0.38255849480628845,9.800572395324707,8.999999999999999e-08,0.0,0.0,0.0,8.999999999999999e-08,0.0,0.0,0.0,8.999999999999999e-08
1758875642850464816,82863,1758875642845997952,base_link,0.02089823182462457,0.017771082849813758,-0.03961496088029899,-0.9988384578876173,1.0,0.0,0.0,0.0,1.0,0.0,0.0,0.0,1.0,-0.00021174713037908077,-0.0008378473576158286,-0.0011782257352024317,1.2184696791468346e-07,0.0,0.0,0.0,1.2184696791468346e-07,0.0,0.0,0.0,1.2184696791468346e-07,0.28450465202331543,-0.46911993622779724,9.80453109741211,8.999999999999999e-08,0.0,0.0,0.0,8.999999999999999e-08,0.0,0.0,0.0,8.999999999999999e-08
1758875642863571408,82864,1758875642849996160,base_link,0.02088422804029844,0.01775854729046818,-0.03961390720908622,-0.9988390057966479,1.0,0.0,0.0,0.0,1.0,0.0,0.0,0.0,1.0,0.0031966082751750946,-0.00128149101510644,-0.002768605714663863,1.2184696791468346e-07,0.0,0.0,0.0,1.2184696791468346e-07,0.0,0.0,0.0,1.2184696791468346e-07,0.2937394082546234,-0.4593546688556659,9.761614799499512,8.999999999999999e-08,0.0,0.0,0.0,8.999999999999999e-08,0.0,0.0,0.0,8.999999999999999e-08
1758875642876887792,82865,1758875642864996160,base_link,0.020881886420664183,0.017771451964010483,-0.03960189535726062,-0.9988393008245875,1.0,0.0,0.0,0.0,1.0,0.0,0.0,0.0,1.0,0.0031314475927501917,0.0010365626076236367,0.0007844179053790866,1.2184696791468346e-07,0.0,0.0,0.0,1.2184696791468346e-07,0.0,0.0,0.0,1.2184696791468346e-07,0.3177702724933624,-0.3751394748687732,9.772107124328613,8.999999999999999e-08,0.0,0.0,0.0,8.999999999999999e-08,0.0,0.0,0.0,8.999999999999999e-08
1758875642880908400,82866,1758875642875996160,base_link,0.020867998540171462,0.017765665168782713,-0.03959641626695419,-0.9988398908804665,1.0,0.0,0.0,0.0,1.0,0.0,0.0,0.0,1.0,0.003762282198294997,0.0011460907990112899,-0.0020888724830001593,1.2184696791468346e-07,0.0,0.0,0.0,1.2184696791468346e-07,0.0,0.0,0.0,1.2184696791468346e-07,0.35606059432029724,-0.45513534545898315,9.784785270690918,8.999999999999999e-08,0.0,0.0,0.0,8.999999999999999e-08,0.0,0.0,0.0,8.999999999999999e-08
1758875642885486448,82867,1758875642879996160,base_link,0.020864954912091692,0.017763095363476436,-0.03957808238785199,-0.9988406916705883,1.0,0.0,0.0,0.0,1.0,0.0,0.0,0.0,1.0,0.0031907926313579082,0.001781083876267075,-0.004288127645850182,1.2184696791468346e-07,0.0,0.0,0.0,1.2184696791468346e-07,0.0,0.0,0.0,1.2184696791468346e-07,0.36073988676071167,-0.40598046779632446,9.788113594055176,8.999999999999999e-08,0.0,0.0,0.0,8.999999999999999e-08,0.0,0.0,0.0,8.999999999999999e-08
1758875642896508624,82868,1758875642890996160,base_link,0.02085724533153674,0.017758787823849723,-0.0395880290441006,-0.9988405230831943,1.0,0.0,0.0,0.0,1.0,0.0,0.0,0.0,1.0,-0.001538146287202835,-0.00047286669723689534,0.0017538921674713492,1.2184696791468346e-07,0.0,0.0,0.0,1.2184696791468346e-07,0.0,0.0,0.0,1.2184696791468346e-07,0.30826908349990845,-0.41214290261268494,9.790271759033203,8.999999999999999e-08,0.0,0.0,0.0,8.999999999999999e-08,0.0,0.0,0.0,8.999999999999999e-08
1758875642909330640,82869,1758875642903996160,base_link,0.020864230019224533,0.01775026214201325,-0.03957728159773028,-0.9988409866985279,1.0,0.0,0.0,0.0,1.0,0.0,0.0,0.0,1.0,-0.0002876387443393469,0.0023825219832360744,-0.0005452146288007501,1.2184696791468346e-07,0.0,0.0,0.0,1.2184696791468346e-07,0.0,0.0,0.0,1.2184696791468346e-07,0.32036396861076355,-0.4041178524494159,9.82664680480957,8.999999999999999e-08,0.0,0.0,0.0,8.999999999999999e-08,0.0,0.0,0.0,8.999999999999999e-08
1758875642914679728,82870,1758875642909996160,base_link,0.020860199726835674,0.017733337548158094,-0.03959258090373974,-0.9988407759642853,1.0,0.0,0.0,0.0,1.0,0.0,0.0,0.0,1.0,0.0018808252643793821,0.0019903841894119982,0.001971283461898565,1.2184696791468346e-07,0.0,0.0,0.0,1.2184696791468346e-07,0.0,0.0,0.0,1.2184696791468346e-07,0.3318144679069519,-0.4116218090057361,9.779897689819336,8.999999999999999e-08,0.0,0.0,0.0,8.999999999999999e-08,0.0,0.0,0.0,8.999999999999999e-08
1758875642929593680,82871,1758875642920996160,base_link,0.02086577875127118,0.01773104597790644,-0.03958958847749551,-0.9988408181111338,1.0,0.0,0.0,0.0,1.0,0.0,0.0,0.0,1.0,-0.0032667587511241436,0.001989140873774886,0.00027285097166895845,1.2184696791468346e-07,0.0,0.0,0.0,1.2184696791468346e-07,0.0,0.0,0.0,1.2184696791468346e-07,0.3355202376842499,-0.44226616621017334,9.75302791595459,8.999999999999999e-08,0.0,0.0,0.0,8.999999999999999e-08,0.0,0.0,0.0,8.999999999999999e-08
1758875642932686000,82872,1758875642924996160,base_link,0.020860953760297316,0.017739514037098465,-0.03959536259574147,-0.9988405230831943,1.0,0.0,0.0,0.0,1.0,0.0,0.0,0.0,1.0,-0.0011610849760472775,-0.0002394642215222119,0.0011087937746196985,1.2184696791468346e-07,0.0,0.0,0.0,1.2184696791468346e-07,0.0,0.0,0.0,1.2184696791468346e-07,0.36985278129577637,-0.42590096592903015,9.785683631896973,8.999999999999999e-08,0.0,0.0,0.0,8.999999999999999e-08,0.0,0.0,0.0,8.999999999999999e-08
1758875642945487440,82873,1758875642935996160,base_link,0.02085503838425436,0.01772815974196408,-0.03960535139883848,-0.9988404809363457,1.0,0.0,0.0,0.0,1.0,0.0,0.0,0.0,1.0,0.00016422010958194733,0.001881124218925834,0.0024782791733741756,1.2184696791468346e-07,0.0,0.0,0.0,1.2184696791468346e-07,0.0,0.0,0.0,1.2184696791468346e-07,0.3341030478477478,-0.4118968546390521,9.802945137023926,8.999999999999999e-08,0.0,0.0,0.0,8.999999999999999e-08,0.0,0.0,0.0,8.999999999999999e-08
1758875642946542032,82874,1758875642939996160,base_link,0.020865719152993206,0.017734682789951776,-0.03960568857362656,-0.9988401437615576,1.0,0.0,0.0,0.0,1.0,0.0,0.0,0.0,1.0,-0.001392918173223734,-6.985082291066638e-05,0.0006331868353299797,1.2184696791468346e-07,0.0,0.0,0.0,1.2184696791468346e-07,0.0,0.0,0.0,1.2184696791468346e-07,0.29845038056373596,-0.46043285727500793,9.780669212341309,8.999999999999999e-08,0.0,0.0,0.0,8.999999999999999e-08,0.0,0.0,0.0,8.999999999999999e-08
1758875642953217616,82875,1758875642944996160,base_link,0.020864238415667005,0.017718577754736807,-0.039595320448892905,-0.9988408181111338,1.0,0.0,0.0,0.0,1.0,0.0,0.0,0.0,1.0,-0.0013864710927009583,0.001437523867934942,-0.002089146291837096,1.2184696791468346e-07,0.0,0.0,0.0,1.2184696791468346e-07,0.0,0.0,0.0,1.2184696791468346e-07,0.30611366033554077,-0.44306197762489197,9.810431480407715,8.999999999999999e-08,0.0,0.0,0.0,8.999999999999999e-08,0.0,0.0,0.0,8.999999999999999e-08
1758875642965991600,82876,1758875642954995392,base_link,0.020850751094871268,0.017718280421891452,-0.03959654270749978,-0.9988410288453764,1.0,0.0,0.0,0.0,1.0,0.0,0.0,0.0,1.0,0.0011774065205827355,-0.0014545717276632784,0.0015703311655670407,1.2184696791468346e-07,0.0,0.0,0.0,1.2184696791468346e-07,0.0,0.0,0.0,1.2184696791468346e-07,0.33479487895965576,-0.37514856457710144,9.813899993896484,8.999999999999999e-08,0.0,0.0,0.0,8.999999999999999e-08,0.0,0.0,0.0,8.999999999999999e-08
1758875642966731792,82877,1758875642962995392,base_link,0.020854975657889976,0.017725806927073186,-0.0396046349024139,-0.9988405230831943,1.0,0.0,0.0,0.0,1.0,0.0,0.0,0.0,1.0,-0.0004285457544028759,-0.001209957059472799,0.0009957327274605634,1.2184696791468346e-07,0.0,0.0,0.0,1.2184696791468346e-07,0.0,0.0,0.0,1.2184696791468346e-07,0.32054445147514343,-0.41938954591750977,9.805063247680664,8.999999999999999e-08,0.0,0.0,0.0,8.999999999999999e-08,0.0,0.0,0.0,8.999999999999999e-08
1758875642985294000,82878,1758875642977995392,base_link,0.020878998044452167,0.017753872776914394,-0.039587101813433355,-0.9988402702021032,1.0,0.0,0.0,0.0,1.0,0.0,0.0,0.0,1.0,-0.003530663438141346,-0.0013141855597496033,-0.0008752169087529181,1.2184696791468346e-07,0.0,0.0,0.0,1.2184696791468346e-07,0.0,0.0,0.0,1.2184696791468346e-07,0.3766780495643616,-0.3848317265510547,9.796454429626465,8.999999999999999e-08,0.0,0.0,0.0,8.999999999999999e-08,0.0,0.0,0.0,8.999999999999999e-08
1758875642989872752,82879,1758875642981995392,base_link,0.020885160868594,0.017746645744847665,-0.03959333954701293,-0.9988400173210121,1.0,0.0,0.0,0.0,1.0,0.0,0.0,0.0,1.0,-0.0014657722786068916,-0.0014802729710936544,0.0022128450218588114,1.2184696791468346e-07,0.0,0.0,0.0,1.2184696791468346e-07,0.0,0.0,0.0,1.2184696791468346e-07,0.31866052746772766,-0.4294146895408618,9.769171714782715,8.999999999999999e-08,0.0,0.0,0.0,8.999999999999999e-08,0.0,0.0,0.0,8.999999999999999e-08
1758875643004612624,82880,1758875642996995392,base_link,0.020862011712049388,0.017745004651933773,-0.03959367672180097,-0.9988404387894972,1.0,0.0,0.0,0.0,1.0,0.0,0.0,0.0,1.0,-0.0008941814303398132,-0.0013543898239731789,-6.627908442169412e-05,1.2184696791468346e-07,0.0,0.0,0.0,1.2184696791468346e-07,0.0,0.0,0.0,1.2184696791468346e-07,0.3390130400657654,-0.3902372121810901,9.809748649597168,8.999999999999999e-08,0.0,0.0,0.0,8.999999999999999e-08,0.0,0.0,0.0,8.999999999999999e-08
1758875643012552752,82881,1758875643007995392,base_link,0.020880136997178726,0.017733425299213783,-0.03960564642677805,-0.9988398487336181,1.0,0.0,0.0,0.0,1.0,0.0,0.0,0.0,1.0,-0.001215682365000248,5.550915375351935e-05,0.002374380361288786,1.2184696791468346e-07,0.0,0.0,0.0,1.2184696791468346e-07,0.0,0.0,0.0,1.2184696791468346e-07,0.33823835849761963,-0.40407678484916565,9.77310562133789,8.999999999999999e-08,0.0,0.0,0.0,8.999999999999999e-08,0.0,0.0,0.0,8.999999999999999e-08
1758875643023633392,82882,1758875643011995392,base_link,0.02086403113878312,0.017731160400014705,-0.03960278044107941,-0.9988403544958002,1.0,0.0,0.0,0.0,1.0,0.0,0.0,0.0,1.0,-0.0024654227308928967,0.0008082047570496791,-0.005420970730483532,1.2184696791468346e-07,0.0,0.0,0.0,1.2184696791468346e-07,0.0,0.0,0.0,1.2184696791468346e-07,0.3228805959224701,-0.4251614212989795,9.76966667175293,8.999999999999999e-08,0.0,0.0,0.0,8.999999999999999e-08,0.0,0.0,0.0,8.999999999999999e-08
1758875643030538640,82883,1758875643026995392,base_link,0.02087239086740358,0.017734030172344366,-0.03958596384852356,-0.9988407338174368,1.0,0.0,0.0,0.0,1.0,0.0,0.0,0.0,1.0,-0.0007349913939833641,-0.0001339567825198174,-0.000337485340423882,1.2184696791468346e-07,0.0,0.0,0.0,1.2184696791468346e-07,0.0,0.0,0.0,1.2184696791468346e-07,0.3316461145877838,-0.408889442682265,9.799714088439941,8.999999999999999e-08,0.0,0.0,0.0,8.999999999999999e-08,0.0,0.0,0.0,8.999999999999999e-08
1758875643042611952,82884,1758875643037995392,base_link,0.02088380459617981,0.017720129779505996,-0.039581875604217984,-0.9988409445516794,1.0,0.0,0.0,0.0,1.0,0.0,0.0,0.0,1.0,-0.0010421283077448606,0.0005086525343358516,-0.0008041469845920802,1.2184696791468346e-07,0.0,0.0,0.0,1.2184696791468346e-07,0.0,0.0,0.0,1.2184696791468346e-07,0.341896653175354,-0.4205919504165637,9.808839797973633,8.999999999999999e-08,0.0,0.0,0.0,8.999999999999999e-08,0.0,0.0,0.0,8.999999999999999e-08
1758875643054534000,82885,1758875643050995392,base_link,0.02089083636979992,0.017723387105278602,-0.03957517425530478,-0.9988409866985278,1.0,0.0,0.0,0.0,1.0,0.0,0.0,0.0,1.0,-0.003873606212437153,-0.0004681802820414304,0.000517633859999478,1.2184696791468346e-07,0.0,0.0,0.0,1.2184696791468346e-07,0.0,0.0,0.0,1.2184696791468346e-07,0.35857710242271423,-0.3974226415157306,9.80842399597168,8.999999999999999e-08,0.0,0.0,0.0,8.999999999999999e-08,0.0,0.0,0.0,8.999999999999999e-08
1758875643064771248,82886,1758875643052994624,base_link,0.020892181117685222,0.01771735878885253,-0.039578124534700505,-0.9988409866985279,1.0,0.0,0.0,0.0,1.0,0.0,0.0,0.0,1.0,0.0009159641340374947,0.002578385639935732,-0.00018579780589789185,1.2184696791468346e-07,0.0,0.0,0.0,1.2184696791468346e-07,0.0,0.0,0.0,1.2184696791468346e-07,0.2927684783935547,-0.41386270523071167,9.799196243286133,8.999999999999999e-08,0.0,0.0,0.0,8.999999999999999e-08,0.0,0.0,0.0,8.999999999999999e-08
1758875643065436784,82887,1758875643061994624,base_link,0.02089420712986403,0.01771539072859042,-0.03958103266724771,-0.9988408602579824,1.0,0.0,0.0,0.0,1.0,0.0,0.0,0.0,1.0,0.000795725965872407,0.0020409326534718275,-0.0014356449246406557,1.2184696791468346e-07,0.0,0.0,0.0,1.2184696791468346e-07,0.0,0.0,0.0,1.2184696791468346e-07,0.34908926486968994,-0.4280927181243884,9.791099548339844,8.999999999999999e-08,0.0,0.0,0.0,8.999999999999999e-08,0.0,0.0,0.0,8.999999999999999e-08
1758875643076554160,82888,1758875643071994624,base_link,0.020874139138436148,0.017711345454314013,-0.03955018117413773,-0.9988425461319228,1.0,0.0,0.0,0.0,1.0,0.0,0.0,0.0,1.0,0.0019482013303786516,0.0004825934302061792,-0.003666377393528819,1.2184696791468346e-07,0.0,0.0,0.0,1.2184696791468346e-07,0.0,0.0,0.0,1.2184696791468346e-07,0.3278537094593048,-0.4036256670951831,9.797290802001953,8.999999999999999e-08,0.0,0.0,0.0,8.999999999999999e-08,0.0,0.0,0.0,8.999999999999999e-08
1758875643099364464,82889,1758875643085994624,base_link,0.02086985366005045,0.01770295790218809,-0.039565944095480865,-0.9988421246634377,1.0,0.0,0.0,0.0,1.0,0.0,0.0,0.0,1.0,0.0006017296109348536,0.0003800888080149887,-0.0019483969081193209,1.2184696791468346e-07,0.0,0.0,0.0,1.2184696791468346e-07,0.0,0.0,0.0,1.2184696791468346e-07,0.35253193974494934,-0.42222791910171387,9.794777870178223,8.999999999999999e-08,0.0,0.0,0.0,8.999999999999999e-08,0.0,0.0,0.0,8.999999999999999e-08
1758875643105957456,82890,1758875643100994624,base_link,0.0208542762836225,0.01769138480564093,-0.03956088647365948,-0.9988428833067109,1.0,0.0,0.0,0.0,1.0,0.0,0.0,0.0,1.0,3.391364589333534e-05,0.0001947591081261635,0.00031595875043421984,1.2184696791468346e-07,0.0,0.0,0.0,1.2184696791468346e-07,0.0,0.0,0.0,1.2184696791468346e-07,0.2753329575061798,-0.47551864385604736,9.800775527954102,8.999999999999999e-08,0.0,0.0,0.0,8.999999999999999e-08,0.0,0.0,0.0,8.999999999999999e-08
1758875643112704272,82891,1758875643108994624,base_link,0.020845761303134282,0.017695782565865237,-0.039556039586080824,-0.9988431783346504,1.0,0.0,0.0,0.0,1.0,0.0,0.0,0.0,1.0,-0.00035215611569583416,-0.0007480245549231771,-0.0027621022891253233,1.2184696791468346e-07,0.0,0.0,0.0,1.2184696791468346e-07,0.0,0.0,0.0,1.2184696791468346e-07,0.3394084870815277,-0.4550583958625781,9.793113708496094,8.999999999999999e-08,0.0,0.0,0.0,8.999999999999999e-08,0.0,0.0,0.0,8.999999999999999e-08
1758875643132452080,82892,1758875643125994624,base_link,0.020835664334101764,0.017692777133366932,-0.03955313145353356,-0.998843557656287,1.0,0.0,0.0,0.0,1.0,0.0,0.0,0.0,1.0,0.002467396203428507,0.001969169825315476,0.0019067118410021064,1.2184696791468346e-07,0.0,0.0,0.0,1.2184696791468346e-07,0.0,0.0,0.0,1.2184696791468346e-07,0.3154425024986267,-0.44710007309913513,9.748772621154785,8.999999999999999e-08,0.0,0.0,0.0,8.999999999999999e-08,0.0,0.0,0.0,8.999999999999999e-08
1758875643142261008,82893,1758875643129994624,base_link,0.02083326558573144,0.017696466628972906,-0.03954322694413352,-0.9988439369779236,1.0,0.0,0.0,0.0,1.0,0.0,0.0,0.0,1.0,0.001641749870032072,0.0013235100777819753,0.0005376696935854851,1.2184696791468346e-07,0.0,0.0,0.0,1.2184696791468346e-07,0.0,0.0,0.0,1.2184696791468346e-07,0.3230955898761749,-0.4537266194820392,9.76265811920166,8.999999999999999e-08,0.0,0.0,0.0,8.999999999999999e-08,0.0,0.0,0.0,8.999999999999999e-08
1758875643144225488,82894,1758875643139994624,base_link,0.02083342544741075,0.017693828005765546,-0.03954706230734792,-0.9988438105373781,1.0,0.0,0.0,0.0,1.0,0.0,0.0,0.0,1.0,0.002202115021646023,0.0014214959228411313,-0.0030621609184890985,1.2184696791468346e-07,0.0,0.0,0.0,1.2184696791468346e-07,0.0,0.0,0.0,1.2184696791468346e-07,0.3430423438549042,-0.3974713385105121,9.751591682434082,8.999999999999999e-08,0.0,0.0,0.0,8.999999999999999e-08,0.0,0.0,0.0,8.999999999999999e-08
1758875643148479856,82895,1758875643140994624,base_link,0.020833110169227554,0.01769280512150852,-0.03954326909098198,-0.9988439791247722,1.0,0.0,0.0,0.0,1.0,0.0,0.0,0.0,1.0,-0.0004791487008333206,-0.0007927997503429649,0.0019010212272405624,1.2184696791468346e-07,0.0,0.0,0.0,1.2184696791468346e-07,0.0,0.0,0.0,1.2184696791468346e-07,0.34803131222724915,-0.4236578345298755,9.774026870727539,8.999999999999999e-08,0.0,0.0,0.0,8.999999999999999e-08,0.0,0.0,0.0,8.999999999999999e-08
1758875643154536720,82896,1758875643149994624,base_link,0.0208513727608868,0.017704121714969823,-0.03953977090255556,-0.9988435998031355,1.0,0.0,0.0,0.0,1.0,0.0,0.0,0.0,1.0,-0.0038443594239652157,-0.0012764488346874716,-0.0012908088974654672,1.2184696791468346e-07,0.0,0.0,0.0,1.2184696791468346e-07,0.0,0.0,0.0,1.2184696791468346e-07,0.29158854484558105,-0.4468841254711139,9.79160213470459,8.999999999999999e-08,0.0,0.0,0.0,8.999999999999999e-08,0.0,0.0,0.0,8.999999999999999e-08
1758875643164579024,82897,1758875643159993600,base_link,0.020833348397703316,0.017697105581781777,-0.03953825361600916,-0.9988441055653177,1.0,0.0,0.0,0.0,1.0,0.0,0.0,0.0,1.0,0.0024235316086560488,0.0015551396645605564,-0.0004921607905998828,1.2184696791468346e-07,0.0,0.0,0.0,1.2184696791468346e-07,0.0,0.0,0.0,1.2184696791468346e-07,0.34801071882247925,-0.38571760058402893,9.769038200378418,8.999999999999999e-08,0.0,0.0,0.0,8.999999999999999e-08,0.0,0.0,0.0,8.999999999999999e-08
1758875643174449680,82898,1758875643167993600,base_link,0.020826662359949892,0.017676635878204023,-0.03956004353668932,-0.9988438105373781,1.0,0.0,0.0,0.0,1.0,0.0,0.0,0.0,1.0,0.007016786374151707,0.001239803852513433,0.003285726299509406,1.2184696791468346e-07,0.0,0.0,0.0,1.2184696791468346e-07,0.0,0.0,0.0,1.2184696791468346e-07,0.31214457750320435,-0.40607735514640686,9.821608543395996,8.999999999999999e-08,0.0,0.0,0.0,8.999999999999999e-08,0.0,0.0,0.0,8.999999999999999e-08
1758875643188891088,82899,1758875643173993600,base_link,0.02081464886176302,0.017680304300385738,-0.0395500547335922,-0.9988443584464087,1.0,0.0,0.0,0.0,1.0,0.0,0.0,0.0,1.0,-0.002193423453718424,0.0003357471432536836,-0.00332968239672482,1.2184696791468346e-07,0.0,0.0,0.0,1.2184696791468346e-07,0.0,0.0,0.0,1.2184696791468346e-07,0.34233036637306213,-0.434126555919646,9.827790260314941,8.999999999999999e-08,0.0,0.0,0.0,8.999999999999999e-08,0.0,0.0,0.0,8.999999999999999e-08
1758875643188903472,82900,1758875643182993600,base_link,0.02083046627766413,0.017694008117688478,-0.03952965565891296,-0.9988445270338028,1.0,0.0,0.0,0.0,1.0,0.0,0.0,0.0,1.0,-0.0017843572422862053,-0.0007296309340745213,-0.001924967160448432,1.2184696791468346e-07,0.0,0.0,0.0,1.2184696791468346e-07,0.0,0.0,0.0,1.2184696791468346e-07,0.3348258137702942,-0.3716180622577655,9.778433799743652,8.999999999999999e-08,0.0,0.0,0.0,8.999999999999999e-08,0.0,0.0,0.0,8.999999999999999e-08
1758875643196490672,82901,1758875643186993600,base_link,0.02082752027880767,0.0177001599112098,-0.03955115055165354,-0.9988436840968327,1.0,0.0,0.0,0.0,1.0,0.0,0.0,0.0,1.0,-0.0017081196419894695,-0.0005115880630910395,0.0008427277207374574,1.2184696791468346e-07,0.0,0.0,0.0,1.2184696791468346e-07,0.0,0.0,0.0,1.2184696791468346e-07,0.3122785687446594,-0.37846410274505493,9.796404838562012,8.999999999999999e-08,0.0,0.0,0.0,8.999999999999999e-08,0.0,0.0,0.0,8.999999999999999e-08
1758875643204560752,82902,1758875643197993600,base_link,0.020815751594541635,0.01769143732456544,-0.03954154107019308,-0.9988444427401058,1.0,0.0,0.0,0.0,1.0,0.0,0.0,0.0,1.0,-0.0007353164255619049,-0.0016299705021083357,-0.0017842587549239395,1.2184696791468346e-07,0.0,0.0,0.0,1.2184696791468346e-07,0.0,0.0,0.0,1.2184696791468346e-07,0.34434041380882263,-0.4480256140232074,9.80850887298584,8.999999999999999e-08,0.0,0.0,0.0,8.999999999999999e-08,0.0,0.0,0.0,8.999999999999999e-08
1758875643212484240,82903,1758875643201993600,base_link,0.020829701048945853,0.017701298205391847,-0.03953222661667214,-0.9988443162995603,1.0,0.0,0.0,0.0,1.0,0.0,0.0,0.0,1.0,-0.001295856200158596,-0.0009246624540537599,-0.00244625611230731,1.2184696791468346e-07,0.0,0.0,0.0,1.2184696791468346e-07,0.0,0.0,0.0,1.2184696791468346e-07,0.32510635256767273,-0.45345130562782165,9.769586563110352,8.999999999999999e-08,0.0,0.0,0.0,8.999999999999999e-08,0.0,0.0,0.0,8.999999999999999e-08
1758875643223755408,82904,1758875643216993600,base_link,0.020811674216220464,0.017708459053735526,-0.03952017261799798,-0.9988450749428335,1.0,0.0,0.0,0.0,1.0,0.0,0.0,0.0,1.0,0.00031385617330670357,-0.00031773885712027566,-0.0012491215020418167,1.2184696791468346e-07,0.0,0.0,0.0,1.2184696791468346e-07,0.0,0.0,0.0,1.2184696791468346e-07,0.2913365066051483,-0.47154411673545715,9.781550407409668,8.999999999999999e-08,0.0,0.0,0.0,8.999999999999999e-08,0.0,0.0,0.0,8.999999999999999e-08
1758875643232508624,82905,1758875643227993600,base_link,0.02081093187192384,0.017719717036735617,-0.03951519928987373,-0.9988450749428335,1.0,0.0,0.0,0.0,1.0,0.0,0.0,0.0,1.0,0.0009826587047427893,-0.002165850717574358,-0.0011820970103144644,1.2184696791468346e-07,0.0,0.0,0.0,1.2184696791468346e-07,0.0,0.0,0.0,1.2184696791468346e-07,0.3012959063053131,-0.4171105921268451,9.764520645141602,8.999999999999999e-08,0.0,0.0,0.0,8.999999999999999e-08,0.0,0.0,0.0,8.999999999999999e-08
