%time,field.header.seq,field.header.stamp,field.header.frame_id,field.orientation.x,field.orientation.y,field.orientation.z,field.orientation.w,field.orientation_covariance0,field.orientation_covariance1,field.orientation_covariance2,field.orientation_covariance3,field.orientation_covariance4,field.orientation_covariance5,field.orientation_covariance6,field.orientation_covariance7,field.orientation_covariance8,field.angular_velocity.x,field.angular_velocity.y,field.angular_velocity.z,field.angular_velocity_covariance0,field.angular_velocity_covariance1,field.angular_velocity_covariance2,field.angular_velocity_covariance3,field.angular_velocity_covariance4,field.angular_velocity_covariance5,field.angular_velocity_covariance6,field.angular_velocity_covariance7,field.angular_velocity_covariance8,field.linear_acceleration.x,field.linear_acceleration.y,field.linear_acceleration.z,field.linear_acceleration_covariance0,field.linear_acceleration_covariance1,field.linear_acceleration_covariance2,field.linear_acceleration_covariance3,field.linear_acceleration_covariance4,field.linear_acceleration_covariance5,field.linear_acceleration_covariance6,field.linear_acceleration_covariance7,field.linear_acceleration_covariance8
30969000000,5783,30940000000,base_link,0.006003478432138541,-0.012078574567336789,0.029689968111862808,-0.99946813180437,1.0,0.0,0.0,0.0,1.0,0.0,0.0,0.0,1.0,0.002641506027430296,0.0026760241016745567,-0.0012340842513367538,1.2184696791468346e-07,0.0,0.0,0.0,1.2184696791468346e-07,0.0,0.0,0.0,1.2184696791468346e-07,-0.25094977021217346,-0.16534648835658908,9.741458892822266,8.999999999999999e-08,0.0,0.0,0.0,8.999999999999999e-08,0.0,0.0,0.0,8.999999999999999e-08
30969000000,5784,30945000000,base_link,0.006006481724367195,-0.012079629226366321,0.02968697568561851,-0.9994681739512185,1.0,0.0,0.0,0.0,1.0,0.0,0.0,0.0,1.0,0.0011771979043260217,0.001682499423623085,-0.000786992837674916,1.2184696791468346e-07,0.0,0.0,0.0,1.2184696791468346e-07,0.0,0.0,0.0,1.2184696791468346e-07,-0.1891506314277649,-0.17278912663459658,9.757667541503906,8.999999999999999e-08,0.0,0.0,0.0,8.999999999999999e-08,0.0,0.0,0.0,8.999999999999999e-08
30969000000,5785,30950000000,base_link,0.006005933156792045,-0.012079823496996175,0.029692201894833792,-0.9994680896575214,1.0,0.0,0.0,0.0,1.0,0.0,0.0,0.0,1.0,-5.888473242521286e-05,0.0014252760447561739,-0.0019991875160485506,1.2184696791468346e-07,0.0,0.0,0.0,1.2184696791468346e-07,0.0,0.0,0.0,1.2184696791468346e-07,-0.24125471711158752,-0.17975881695747256,9.815940856933594,8.999999999999999e-08,0.0,0.0,0.0,8.999999999999999e-08,0.0,0.0,0.0,8.999999999999999e-08
30969000000,5786,30954000000,base_link,0.006010653603825266,-0.012090248256557542,0.029696711607624493,-0.999467794629582,1.0,0.0,0.0,0.0,1.0,0.0,0.0,0.0,1.0,-0.0002337238984182477,0.003367942757904529,-0.0030296344775706534,1.2184696791468346e-07,0.0,0.0,0.0,1.2184696791468346e-07,0.0,0.0,0.0,1.2184696791468346e-07,-0.20396751165390015,-0.21753720939159274,9.756647109985352,8.999999999999999e-08,0.0,0.0,0.0,8.999999999999999e-08,0.0,0.0,0.0,8.999999999999999e-08
30969000000,5787,30961000000,base_link,0.0060137191285099265,-0.012095525173700007,0.029700294089747947,-0.9994675838953393,1.0,0.0,0.0,0.0,1.0,0.0,0.0,0.0,1.0,-3.950134851038456e-05,0.0017681261524558065,-0.0015281667001545431,1.2184696791468346e-07,0.0,0.0,0.0,1.2184696791468346e-07,0.0,0.0,0.0,1.2184696791468346e-07,-0.21503427624702454,-0.1389034390449512,9.755853652954102,8.999999999999999e-08,0.0,0.0,0.0,8.999999999999999e-08,0.0,0.0,0.0,8.999999999999999e-08
30969000000,5788,30965000000,base_link,0.006015401709727822,-0.012103253193501187,0.02970088414562716,-0.9994674153079453,1.0,0.0,0.0,0.0,1.0,0.0,0.0,0.0,1.0,0.00030562025494873524,0.0021166065707802773,-0.0014470512978732588,1.2184696791468346e-07,0.0,0.0,0.0,1.2184696791468346e-07,0.0,0.0,0.0,1.2184696791468346e-07,-0.22076447308063507,-0.18446652591228366,9.76861572265625,8.999999999999999e-08,0.0,0.0,0.0,8.999999999999999e-08,0.0,0.0,0.0,8.999999999999999e-08
30970000000,5789,30970000000,base_link,0.0060139255822131785,-0.012107172521140444,0.02969637443283646,-0.9994675417484908,1.0,0.0,0.0,0.0,1.0,0.0,0.0,0.0,1.0,0.0004340550513006747,0.0011620889417827127,-0.0009283643448725344,1.2184696791468346e-07,0.0,0.0,0.0,1.2184696791468346e-07,0.0,0.0,0.0,1.2184696791468346e-07,-0.22989383339881897,-0.1855364888906467,9.844327926635742,8.999999999999999e-08,0.0,0.0,0.0,8.999999999999999e-08,0.0,0.0,0.0,8.999999999999999e-08
30975000000,5790,30975000000,base_link,0.006033197887239292,-0.012110166923018242,0.02970231713847643,-0.9994672467205512,1.0,0.0,0.0,0.0,1.0,0.0,0.0,0.0,1.0,-0.002893527504056692,0.0009755077771842478,-0.0016849476378411057,1.2184696791468346e-07,0.0,0.0,0.0,1.2184696791468346e-07,0.0,0.0,0.0,1.2184696791468346e-07,-0.2333206683397293,-0.16226954758167147,9.7807035446167,8.999999999999999e-08,0.0,0.0,0.0,8.999999999999999e-08,0.0,0.0,0.0,8.999999999999999e-08
30979000000,5791,30979000000,base_link,0.006034114581194404,-0.012107948945115356,0.029704761655690082,-0.9994671624268542,1.0,0.0,0.0,0.0,1.0,0.0,0.0,0.0,1.0,-0.0017431890591979027,-0.00015087937936186815,-0.0018900278955698013,1.2184696791468346e-07,0.0,0.0,0.0,1.2184696791468346e-07,0.0,0.0,0.0,1.2184696791468346e-07,-0.23382015526294708,-0.15074701607227206,9.764739990234375,8.999999999999999e-08,0.0,0.0,0.0,8.999999999999999e-08,0.0,0.0,0.0,8.999999999999999e-08
30985000000,5792,30985000000,base_link,0.006038868284725277,-0.01209945866004619,0.029698776803201543,-0.9994674153079454,1.0,0.0,0.0,0.0,1.0,0.0,0.0,0.0,1.0,-0.00045387702994048595,-0.002846300834789872,-0.0005415914929471907,1.2184696791468346e-07,0.0,0.0,0.0,1.2184696791468346e-07,0.0,0.0,0.0,1.2184696791468346e-07,-0.2221461981534958,-0.1568448543548572,9.81696605682373,8.999999999999999e-08,0.0,0.0,0.0,8.999999999999999e-08,0.0,0.0,0.0,8.999999999999999e-08
30990000000,5793,30990000000,base_link,0.00604117088559744,-0.012103006568582946,0.029701389907809184,-0.9994673310142482,1.0,0.0,0.0,0.0,1.0,0.0,0.0,0.0,1.0,-0.0016600661911070347,-0.0008968124166131021,-0.0005871267640031873,1.2184696791468346e-07,0.0,0.0,0.0,1.2184696791468346e-07,0.0,0.0,0.0,1.2184696791468346e-07,-0.25832852721214294,-0.1641078144311893,9.85071086883545,8.999999999999999e-08,0.0,0.0,0.0,8.999999999999999e-08,0.0,0.0,0.0,8.999999999999999e-08
30995000000,5794,30995000000,base_link,0.0060371952524027475,-0.012097105351246912,0.029690768901984466,-0.9994677524827333,1.0,0.0,0.0,0.0,1.0,0.0,0.0,0.0,1.0,8.557876572012901e-05,-0.001015947200357914,0.0008161444566212596,1.2184696791468346e-07,0.0,0.0,0.0,1.2184696791468346e-07,0.0,0.0,0.0,1.2184696791468346e-07,-0.2682253420352936,-0.17889738082885623,9.802264213562012,8.999999999999999e-08,0.0,0.0,0.0,8.999999999999999e-08,0.0,0.0,0.0,8.999999999999999e-08
31000000000,5795,30999000000,base_link,0.006036891004840059,-0.012099194254426234,0.029677703378946096,-0.9994680896575214,1.0,0.0,0.0,0.0,1.0,0.0,0.0,0.0,1.0,0.002704702550545335,-0.0016162653919309373,0.0041857012547552586,1.2184696791468346e-07,0.0,0.0,0.0,1.2184696791468346e-07,0.0,0.0,0.0,1.2184696791468346e-07,-0.2177862673997879,-0.1415575146675098,9.766695022583008,8.999999999999999e-08,0.0,0.0,0.0,8.999999999999999e-08,0.0,0.0,0.0,8.999999999999999e-08
31004000000,5796,31004000000,base_link,0.006030668088511877,-0.012108633502131405,0.029675469595975057,-0.999468047510673,1.0,0.0,0.0,0.0,1.0,0.0,0.0,0.0,1.0,0.0029593990184366703,0.002077870070934296,0.0036533060483634468,1.2184696791468346e-07,0.0,0.0,0.0,1.2184696791468346e-07,0.0,0.0,0.0,1.2184696791468346e-07,-0.24373775720596313,-0.11744239926338075,9.837274551391602,8.999999999999999e-08,0.0,0.0,0.0,8.999999999999999e-08,0.0,0.0,0.0,8.999999999999999e-08
31011000000,5797,31010000000,base_link,0.0060395936715008204,-0.012115214008127421,0.029676523267187782,-0.9994679210701274,1.0,0.0,0.0,0.0,1.0,0.0,0.0,0.0,1.0,0.00013072439469397068,0.0023040170781314373,-0.0008226993959397081,1.2184696791468346e-07,0.0,0.0,0.0,1.2184696791468346e-07,0.0,0.0,0.0,1.2184696791468346e-07,-0.2135506421327591,-0.13246192038059115,9.802872657775879,8.999999999999999e-08,0.0,0.0,0.0,8.999999999999999e-08,0.0,0.0,0.0,8.999999999999999e-08
31015000000,5798,31015000000,base_link,0.006030997031493614,-0.012113956188117175,0.029687270713558145,-0.9994676260421879,1.0,0.0,0.0,0.0,1.0,0.0,0.0,0.0,1.0,0.0010832962580025196,0.0002628290094435211,-0.0030830474570393562,1.2184696791468346e-07,0.0,0.0,0.0,1.2184696791468346e-07,0.0,0.0,0.0,1.2184696791468346e-07,-0.22260363399982452,-0.16164033114910006,9.846546173095703,8.999999999999999e-08,0.0,0.0,0.0,8.999999999999999e-08,0.0,0.0,0.0,8.999999999999999e-08
31020000000,5799,31020000000,base_link,0.006033929200915407,-0.012116879796460363,0.029679009931249944,-0.9994677946295818,1.0,0.0,0.0,0.0,1.0,0.0,0.0,0.0,1.0,0.0010789770167320967,0.0007957695052027702,7.29351886548101e-05,1.2184696791468346e-07,0.0,0.0,0.0,1.2184696791468346e-07,0.0,0.0,0.0,1.2184696791468346e-07,-0.21397913992404938,-0.10979619622230409,9.804037094116211,8.999999999999999e-08,0.0,0.0,0.0,8.999999999999999e-08,0.0,0.0,0.0,8.999999999999999e-08
31024000000,5800,31024000000,base_link,0.0060335732576088435,-0.01213394301393445,0.029671507792215,-0.9994678789232789,1.0,0.0,0.0,0.0,1.0,0.0,0.0,0.0,1.0,9.114015847444534e-05,0.0037072552368044858,0.002603036584332585,1.2184696791468346e-07,0.0,0.0,0.0,1.2184696791468346e-07,0.0,0.0,0.0,1.2184696791468346e-07,-0.22980442643165588,-0.1542951762676227,9.820748329162598,8.999999999999999e-08,0.0,0.0,0.0,8.999999999999999e-08,0.0,0.0,0.0,8.999999999999999e-08
31029000000,5801,31029000000,base_link,0.006042301606517645,-0.012140199186760287,0.02967192926070017,-0.9994677103358849,1.0,0.0,0.0,0.0,1.0,0.0,0.0,0.0,1.0,-0.0022014519199728966,0.0040542734786868095,0.0011810825672000642,1.2184696791468346e-07,0.0,0.0,0.0,1.2184696791468346e-07,0.0,0.0,0.0,1.2184696791468346e-07,-0.2595374286174774,-0.13518664240836978,9.8076810836792,8.999999999999999e-08,0.0,0.0,0.0,8.999999999999999e-08,0.0,0.0,0.0,8.999999999999999e-08
31035000000,5802,31035000000,base_link,0.006053768512762895,-0.012153506724905347,0.029661898310754498,-0.9994677946295818,1.0,0.0,0.0,0.0,1.0,0.0,0.0,0.0,1.0,-0.00360477389767766,0.003102515824139118,0.001713271019980311,1.2184696791468346e-07,0.0,0.0,0.0,1.2184696791468346e-07,0.0,0.0,0.0,1.2184696791468346e-07,-0.14155814051628113,-0.14301714301109195,9.827040672302246,8.999999999999999e-08,0.0,0.0,0.0,8.999999999999999e-08,0.0,0.0,0.0,8.999999999999999e-08
31040000000,5803,31040000000,base_link,0.006046842270900186,-0.012150002938850626,0.029656419220448094,-0.999468047510673,1.0,0.0,0.0,0.0,1.0,0.0,0.0,0.0,1.0,0.0006441391305997968,0.0012169806286692621,0.0019519175402820108,1.2184696791468346e-07,0.0,0.0,0.0,1.2184696791468346e-07,0.0,0.0,0.0,1.2184696791468346e-07,-0.27553659677505493,-0.1501225531101215,9.791288375854492,8.999999999999999e-08,0.0,0.0,0.0,8.999999999999999e-08,0.0,0.0,0.0,8.999999999999999e-08
31045000000,5804,31045000000,base_link,0.00604014717815978,-0.012155465236272088,0.029658990178207334,-0.9994679210701274,1.0,0.0,0.0,0.0,1.0,0.0,0.0,0.0,1.0,0.0029943673871457577,-4.195515066385264e-05,0.00043511862168088555,1.2184696791468346e-07,0.0,0.0,0.0,1.2184696791468346e-07,0.0,0.0,0.0,1.2184696791468346e-07,-0.253641277551651,-0.1829071044921863,9.79430866241455,8.999999999999999e-08,0.0,0.0,0.0,8.999999999999999e-08,0.0,0.0,0.0,8.999999999999999e-08
31049000000,5805,31049000000,base_link,0.006037705624396434,-0.012154056938841766,0.02965591345826596,-0.999468047510673,1.0,0.0,0.0,0.0,1.0,0.0,0.0,0.0,1.0,0.0030269408598542213,0.0006222967058420181,0.00026120216352865094,1.2184696791468346e-07,0.0,0.0,0.0,1.2184696791468346e-07,0.0,0.0,0.0,1.2184696791468346e-07,-0.213269904255867,-0.12815706431865573,9.798478126525879,8.999999999999999e-08,0.0,0.0,0.0,8.999999999999999e-08,0.0,0.0,0.0,8.999999999999999e-08
31054000000,5806,31054000000,base_link,0.0060262410230569625,-0.012162826776054573,0.029653637528446408,-0.999468047510673,1.0,0.0,0.0,0.0,1.0,0.0,0.0,0.0,1.0,0.003796757198870182,0.0023358301259577274,0.0003294986672699449,1.2184696791468346e-07,0.0,0.0,0.0,1.2184696791468346e-07,0.0,0.0,0.0,1.2184696791468346e-07,-0.25338491797447205,-0.157450884580611,9.851351737976074,8.999999999999999e-08,0.0,0.0,0.0,8.999999999999999e-08,0.0,0.0,0.0,8.999999999999999e-08
31060000000,5807,31060000000,base_link,0.006027168253724202,-0.012163768494700987,0.02965709357002433,-0.999467963216976,1.0,0.0,0.0,0.0,1.0,0.0,0.0,0.0,1.0,0.0012407678877934813,0.0007730368524789809,-0.0007595431525260211,1.2184696791468346e-07,0.0,0.0,0.0,1.2184696791468346e-07,0.0,0.0,0.0,1.2184696791468346e-07,-0.21921958029270172,-0.1770538240671146,9.801934242248535,8.999999999999999e-08,0.0,0.0,0.0,8.999999999999999e-08,0.0,0.0,0.0,8.999999999999999e-08
31065000000,5808,31065000000,base_link,0.006030427390494209,-0.012167584760124747,0.02965405899693152,-0.9994679632169758,1.0,0.0,0.0,0.0,1.0,0.0,0.0,0.0,1.0,-0.0007991702295839787,0.0002998355776071548,-0.0004604670975822956,1.2184696791468346e-07,0.0,0.0,0.0,1.2184696791468346e-07,0.0,0.0,0.0,1.2184696791468346e-07,-0.24559049308300018,-0.149963855743407,9.759650230407715,8.999999999999999e-08,0.0,0.0,0.0,8.999999999999999e-08,0.0,0.0,0.0,8.999999999999999e-08
31070000000,5809,31070000000,base_link,0.00602632828020427,-0.012163362502011816,0.029657978653843065,-0.9994679210701274,1.0,0.0,0.0,0.0,1.0,0.0,0.0,0.0,1.0,0.001058440306223929,0.0005310270935297011,-0.001222273800522089,1.2184696791468346e-07,0.0,0.0,0.0,1.2184696791468346e-07,0.0,0.0,0.0,1.2184696791468346e-07,-0.21519634127616882,-0.18890853226184726,9.76523494720459,8.999999999999999e-08,0.0,0.0,0.0,8.999999999999999e-08,0.0,0.0,0.0,8.999999999999999e-08
31074000000,5810,31074000000,base_link,0.006021887714586944,-0.012170766517915066,0.029663710625240536,-0.9994677524827333,1.0,0.0,0.0,0.0,1.0,0.0,0.0,0.0,1.0,0.0016515676397830248,0.001724469009786844,-0.001955043524503708,1.2184696791468346e-07,0.0,0.0,0.0,1.2184696791468346e-07,0.0,0.0,0.0,1.2184696791468346e-07,-0.22848084568977356,-0.18608830869197726,9.796677589416504,8.999999999999999e-08,0.0,0.0,0.0,8.999999999999999e-08,0.0,0.0,0.0,8.999999999999999e-08
31081000000,5811,31081000000,base_link,0.00602745834257997,-0.012164925886673767,0.029668304631728204,-0.9994676260421879,1.0,0.0,0.0,0.0,1.0,0.0,0.0,0.0,1.0,-0.001126262592151761,-0.0011151647195219996,-0.0017692381516098974,1.2184696791468346e-07,0.0,0.0,0.0,1.2184696791468346e-07,0.0,0.0,0.0,1.2184696791468346e-07,-0.22205188870429993,-0.17683756351470828,9.789202690124512,8.999999999999999e-08,0.0,0.0,0.0,8.999999999999999e-08,0.0,0.0,0.0,8.999999999999999e-08
31085000000,5812,31085000000,base_link,0.006032387877494473,-0.012168777384228705,0.02967403660312562,-0.9994673731610968,1.0,0.0,0.0,0.0,1.0,0.0,0.0,0.0,1.0,-0.0018337755464017391,-0.0005729980766773227,-0.002417061012238264,1.2184696791468346e-07,0.0,0.0,0.0,1.2184696791468346e-07,0.0,0.0,0.0,1.2184696791468346e-07,-0.1747322827577591,-0.13674482703208804,9.818758010864258,8.999999999999999e-08,0.0,0.0,0.0,8.999999999999999e-08,0.0,0.0,0.0,8.999999999999999e-08
31090000000,5813,31090000000,base_link,0.006030572270285966,-0.012164380282548905,0.029671044176881378,-0.9994674996016424,1.0,0.0,0.0,0.0,1.0,0.0,0.0,0.0,1.0,0.00035046576522290707,-0.0006133075803518295,-0.00023942117695696644,1.2184696791468346e-07,0.0,0.0,0.0,1.2184696791468346e-07,0.0,0.0,0.0,1.2184696791468346e-07,-0.24171502888202667,-0.19145792722701907,9.796276092529297,8.999999999999999e-08,0.0,0.0,0.0,8.999999999999999e-08,0.0,0.0,0.0,8.999999999999999e-08
31095000000,5814,31095000000,base_link,0.006026840957103736,-0.012171701980388654,0.029666745198333233,-0.9994675838953393,1.0,0.0,0.0,0.0,1.0,0.0,0.0,0.0,1.0,0.0010726416949182749,0.0009635756723582745,-0.00010632420890033257,1.2184696791468346e-07,0.0,0.0,0.0,1.2184696791468346e-07,0.0,0.0,0.0,1.2184696791468346e-07,-0.17026850581169128,-0.15359731018543124,9.791296005249023,8.999999999999999e-08,0.0,0.0,0.0,8.999999999999999e-08,0.0,0.0,0.0,8.999999999999999e-08
31099000000,5815,31099000000,base_link,0.006029947640820143,-0.012163373038723944,0.02966139254857242,-0.9994678789232789,1.0,0.0,0.0,0.0,1.0,0.0,0.0,0.0,1.0,0.0004909213166683912,-0.0005647414363920688,0.0010720386635512114,1.2184696791468346e-07,0.0,0.0,0.0,1.2184696791468346e-07,0.0,0.0,0.0,1.2184696791468346e-07,-0.21459735929965973,-0.18598519265651584,9.808052062988281,8.999999999999999e-08,0.0,0.0,0.0,8.999999999999999e-08,0.0,0.0,0.0,8.999999999999999e-08
31104000000,5816,31104000000,base_link,0.006028810663727111,-0.012166327598659009,0.02966784101639458,-0.9994675838953393,1.0,0.0,0.0,0.0,1.0,0.0,0.0,0.0,1.0,-0.00018351012840867043,-0.000959283672273159,-0.0004059594066347926,1.2184696791468346e-07,0.0,0.0,0.0,1.2184696791468346e-07,0.0,0.0,0.0,1.2184696791468346e-07,-0.2361798733472824,-0.16139230132102847,9.809527397155762,8.999999999999999e-08,0.0,0.0,0.0,8.999999999999999e-08,0.0,0.0,0.0,8.999999999999999e-08
31110000000,5817,31110000000,base_link,0.006026576222211525,-0.012157796154558092,0.029664427121665116,-0.9994678789232789,1.0,0.0,0.0,0.0,1.0,0.0,0.0,0.0,1.0,-0.0009990129619836807,-0.0023017465136945248,0.0004559613880701366,1.2184696791468346e-07,0.0,0.0,0.0,1.2184696791468346e-07,0.0,0.0,0.0,1.2184696791468346e-07,-0.20562775433063507,-0.17531859874725222,9.803121566772461,8.999999999999999e-08,0.0,0.0,0.0,8.999999999999999e-08,0.0,0.0,0.0,8.999999999999999e-08
31115000000,5818,31115000000,base_link,0.006049752049808709,-0.012163878142361568,0.02964031912431697,-0.9994683003917639,1.0,0.0,0.0,0.0,1.0,0.0,0.0,0.0,1.0,-0.004732044413685799,0.0002421257086098199,0.0039918809197843075,1.2184696791468346e-07,0.0,0.0,0.0,1.2184696791468346e-07,0.0,0.0,0.0,1.2184696791468346e-07,-0.21045438945293427,-0.13101352751254916,9.792292594909668,8.999999999999999e-08,0.0,0.0,0.0,8.999999999999999e-08,0.0,0.0,0.0,8.999999999999999e-08
31120000000,5819,31120000000,base_link,0.00605103258960448,-0.012165275244535251,0.029639434040498236,-0.9994683425386125,1.0,0.0,0.0,0.0,1.0,0.0,0.0,0.0,1.0,-0.003076053224503994,0.0001131310127675537,0.0029441858641803265,1.2184696791468346e-07,0.0,0.0,0.0,1.2184696791468346e-07,0.0,0.0,0.0,1.2184696791468346e-07,-0.18906669318675995,-0.16760919988155246,9.798026084899902,8.999999999999999e-08,0.0,0.0,0.0,8.999999999999999e-08,0.0,0.0,0.0,8.999999999999999e-08
31125000000,5820,31124000000,base_link,0.006054854452656557,-0.012165046400318728,0.029635050768253124,-0.9994684268323095,1.0,0.0,0.0,0.0,1.0,0.0,0.0,0.0,1.0,-0.001453914912417531,8.045649155974413e-05,0.0020260955207049847,1.2184696791468346e-07,0.0,0.0,0.0,1.2184696791468346e-07,0.0,0.0,0.0,1.2184696791468346e-07,-0.21005971729755402,-0.19743041694164157,9.817065238952637,8.999999999999999e-08,0.0,0.0,0.0,8.999999999999999e-08,0.0,0.0,0.0,8.999999999999999e-08
31129000000,5821,31129000000,base_link,0.006048787940649021,-0.012173898555595032,0.02963610443946585,-0.9994683003917639,1.0,0.0,0.0,0.0,1.0,0.0,0.0,0.0,1.0,0.000900148181244731,0.0019285036250948908,0.0009560484322719274,1.2184696791468346e-07,0.0,0.0,0.0,1.2184696791468346e-07,0.0,0.0,0.0,1.2184696791468346e-07,-0.2457849681377411,-0.19819660484790683,9.841675758361816,8.999999999999999e-08,0.0,0.0,0.0,8.999999999999999e-08,0.0,0.0,0.0,8.999999999999999e-08
31134000000,5822,31134000000,base_link,0.006047471180905309,-0.012179834346517733,0.029630667496008012,-0.9994684268323095,1.0,0.0,0.0,0.0,1.0,0.0,0.0,0.0,1.0,0.002366743516176939,0.00234425812959671,0.0007907286635600027,1.2184696791468346e-07,0.0,0.0,0.0,1.2184696791468346e-07,0.0,0.0,0.0,1.2184696791468346e-07,-0.2505796253681183,-0.26122152805328247,9.82688045501709,8.999999999999999e-08,0.0,0.0,0.0,8.999999999999999e-08,0.0,0.0,0.0,8.999999999999999e-08
31140000000,5823,31140000000,base_link,0.006038117543986177,-0.012185506719637243,0.02962544128679262,-0.9994685954197036,1.0,0.0,0.0,0.0,1.0,0.0,0.0,0.0,1.0,0.0019223496783524752,0.0015330049209296706,0.0009023235761560497,1.2184696791468346e-07,0.0,0.0,0.0,1.2184696791468346e-07,0.0,0.0,0.0,1.2184696791468346e-07,-0.25626590847969055,-0.1381254047155368,9.859501838684082,8.999999999999999e-08,0.0,0.0,0.0,8.999999999999999e-08,0.0,0.0,0.0,8.999999999999999e-08
31145000000,5824,31145000000,base_link,0.006039335522053691,-0.012193617683069811,0.029627548629218126,-0.9994684268323096,1.0,0.0,0.0,0.0,1.0,0.0,0.0,0.0,1.0,-0.0005993511294946074,0.0015879147686064243,-0.0006098473677411678,1.2184696791468346e-07,0.0,0.0,0.0,1.2184696791468346e-07,0.0,0.0,0.0,1.2184696791468346e-07,-0.25701746344566345,-0.1691264659166324,9.833861351013184,8.999999999999999e-08,0.0,0.0,0.0,8.999999999999999e-08,0.0,0.0,0.0,8.999999999999999e-08
31150000000,5825,31150000000,base_link,0.006050327946980939,-0.012187775076194991,0.02963559867728377,-0.999468216098067,1.0,0.0,0.0,0.0,1.0,0.0,0.0,0.0,1.0,-0.004199447575956583,0.00018343701958656284,-0.0021290055010467768,1.2184696791468346e-07,0.0,0.0,0.0,1.2184696791468346e-07,0.0,0.0,0.0,1.2184696791468346e-07,-0.2021406590938568,-0.19877059757709384,9.803208351135254,8.999999999999999e-08,0.0,0.0,0.0,8.999999999999999e-08,0.0,0.0,0.0,8.999999999999999e-08
31154000000,5826,31154000000,base_link,0.006057789914800891,-0.012197872539135889,0.02963273269158495,-0.9994681318043699,1.0,0.0,0.0,0.0,1.0,0.0,0.0,0.0,1.0,-0.0025021634064614773,0.0018437914550304413,-0.0008385903201997282,1.2184696791468346e-07,0.0,0.0,0.0,1.2184696791468346e-07,0.0,0.0,0.0,1.2184696791468346e-07,-0.22140628099441528,-0.1522192507982242,9.807703018188477,8.999999999999999e-08,0.0,0.0,0.0,8.999999999999999e-08,0.0,0.0,0.0,8.999999999999999e-08
31159000000,5827,31159000000,base_link,0.006061483361673912,-0.012201436252740836,0.029636230880011327,-0.9994679210701274,1.0,0.0,0.0,0.0,1.0,0.0,0.0,0.0,1.0,0.0002775172470137477,0.001974899787455797,-0.0007347558857873084,1.2184696791468346e-07,0.0,0.0,0.0,1.2184696791468346e-07,0.0,0.0,0.0,1.2184696791468346e-07,-0.21367515623569489,-0.18291497230529666,9.8252592086792,8.999999999999999e-08,0.0,0.0,0.0,8.999999999999999e-08,0.0,0.0,0.0,8.999999999999999e-08
31164000000,5828,31164000000,base_link,0.006060515301247178,-0.01221442143334924,0.029636736642193462,-0.9994677524827333,1.0,0.0,0.0,0.0,1.0,0.0,0.0,0.0,1.0,0.0010390948737040162,0.0019691656343638897,-0.0009276342461816969,1.2184696791468346e-07,0.0,0.0,0.0,1.2184696791468346e-07,0.0,0.0,0.0,1.2184696791468346e-07,-0.19782041013240814,-0.1726471334695804,9.855461120605469,8.999999999999999e-08,0.0,0.0,0.0,8.999999999999999e-08,0.0,0.0,0.0,8.999999999999999e-08
31169000000,5829,31169000000,base_link,0.0060712611012561845,-0.012216529105047039,0.029628180831945794,-0.9994679632169761,1.0,0.0,0.0,0.0,1.0,0.0,0.0,0.0,1.0,-0.0003549081739038229,0.0019566034898161892,0.0018262255471199749,1.2184696791468346e-07,0.0,0.0,0.0,1.2184696791468346e-07,0.0,0.0,0.0,1.2184696791468346e-07,-0.2385733723640442,-0.2190794348716724,9.798755645751953,8.999999999999999e-08,0.0,0.0,0.0,8.999999999999999e-08,0.0,0.0,0.0,8.999999999999999e-08
31173000000,5830,31173000000,base_link,0.006071472494043249,-0.01221928379672393,0.029624134734488716,-0.999467963216976,1.0,0.0,0.0,0.0,1.0,0.0,0.0,0.0,1.0,0.0003985879011452198,-0.0003875796683132645,0.002587456488981843,1.2184696791468346e-07,0.0,0.0,0.0,1.2184696791468346e-07,0.0,0.0,0.0,1.2184696791468346e-07,-0.24598868191242218,-0.16648299992084384,9.814262390136719,8.999999999999999e-08,0.0,0.0,0.0,8.999999999999999e-08,0.0,0.0,0.0,8.999999999999999e-08
31178000000,5831,31178000000,base_link,0.006080460638760449,-0.012209232761170844,0.029611954295269083,-0.9994684268323095,1.0,0.0,0.0,0.0,1.0,0.0,0.0,0.0,1.0,0.0004952844465151429,-0.001425378024578094,0.0026987316086888313,1.2184696791468346e-07,0.0,0.0,0.0,1.2184696791468346e-07,0.0,0.0,0.0,1.2184696791468346e-07,-0.21090395748615265,-0.17494837939739108,9.805197715759277,8.999999999999999e-08,0.0,0.0,0.0,8.999999999999999e-08,0.0,0.0,0.0,8.999999999999999e-08
31183000000,5832,31183000000,base_link,0.006086405649306264,-0.01220801478310333,0.02961705406393894,-0.999468216098067,1.0,0.0,0.0,0.0,1.0,0.0,0.0,0.0,1.0,-0.00020030676387250423,-0.0009083556942641734,0.0009505926282145084,1.2184696791468346e-07,0.0,0.0,0.0,1.2184696791468346e-07,0.0,0.0,0.0,1.2184696791468346e-07,-0.23766136169433594,-0.1853439211845386,9.748617172241211,8.999999999999999e-08,0.0,0.0,0.0,8.999999999999999e-08,0.0,0.0,0.0,8.999999999999999e-08
31188000000,5833,31187000000,base_link,0.006089777726459389,-0.012208929830697173,0.029615536777392593,-0.999468300391764,1.0,0.0,0.0,0.0,1.0,0.0,0.0,0.0,1.0,6.601191125810146e-05,0.00030926987528800954,-0.0007468241965398192,1.2184696791468346e-07,0.0,0.0,0.0,1.2184696791468346e-07,0.0,0.0,0.0,1.2184696791468346e-07,-0.21654973924160004,-0.1602248400449741,9.758380889892578,8.999999999999999e-08,0.0,0.0,0.0,8.999999999999999e-08,0.0,0.0,0.0,8.999999999999999e-08
31194000000,5834,31194000000,base_link,0.0061168761744183715,-0.012207697693922737,0.029618739937879335,-0.999468047510673,1.0,0.0,0.0,0.0,1.0,0.0,0.0,0.0,1.0,-0.003563462756574154,-0.0007248367182910445,-0.002018176019191742,1.2184696791468346e-07,0.0,0.0,0.0,1.2184696791468346e-07,0.0,0.0,0.0,1.2184696791468346e-07,-0.24135063588619232,-0.13306291401386142,9.82817268371582,8.999999999999999e-08,0.0,0.0,0.0,8.999999999999999e-08,0.0,0.0,0.0,8.999999999999999e-08
31199000000,5835,31198000000,base_link,0.006117765209504148,-0.012206774414522547,0.02962097372085043,-0.9994680053638244,1.0,0.0,0.0,0.0,1.0,0.0,0.0,0.0,1.0,-0.0012372730998322368,0.000716552138328552,-0.0013887400273233652,1.2184696791468346e-07,0.0,0.0,0.0,1.2184696791468346e-07,0.0,0.0,0.0,1.2184696791468346e-07,-0.17783129215240479,-0.16884855926036715,9.77662181854248,8.999999999999999e-08,0.0,0.0,0.0,8.999999999999999e-08,0.0,0.0,0.0,8.999999999999999e-08
31203000000,5836,31203000000,base_link,0.006125900539083512,-0.012207927196683769,0.02961768626666661,-0.9994680053638245,1.0,0.0,0.0,0.0,1.0,0.0,0.0,0.0,1.0,-0.0003656243206933141,0.0008952766656875609,-0.000787917000707239,1.2184696791468346e-07,0.0,0.0,0.0,1.2184696791468346e-07,0.0,0.0,0.0,1.2184696791468346e-07,-0.2078763246536255,-0.17545956373214602,9.793225288391113,8.999999999999999e-08,0.0,0.0,0.0,8.999999999999999e-08,0.0,0.0,0.0,8.999999999999999e-08
31208000000,5837,31208000000,base_link,0.00613847445864668,-0.012217579154265017,0.029616590448605318,-0.9994678367764304,1.0,0.0,0.0,0.0,1.0,0.0,0.0,0.0,1.0,-0.001226023188792169,0.0031401952728629112,-0.00030150351813063063,1.2184696791468346e-07,0.0,0.0,0.0,1.2184696791468346e-07,0.0,0.0,0.0,1.2184696791468346e-07,-0.21498946845531464,-0.20173957943916201,9.786399841308594,8.999999999999999e-08,0.0,0.0,0.0,8.999999999999999e-08,0.0,0.0,0.0,8.999999999999999e-08
31213000000,5838,31213000000,base_link,0.00613715210127465,-0.012223720740346463,0.029614314518785767,-0.9994678367764305,1.0,0.0,0.0,0.0,1.0,0.0,0.0,0.0,1.0,0.0006148203974589705,0.0025516515597701073,0.0007805509376339611,1.2184696791468346e-07,0.0,0.0,0.0,1.2184696791468346e-07,0.0,0.0,0.0,1.2184696791468346e-07,-0.18847621977329254,-0.1811007559299457,9.775484085083008,8.999999999999999e-08,0.0,0.0,0.0,8.999999999999999e-08,0.0,0.0,0.0,8.999999999999999e-08
31217000000,5839,31217000000,base_link,0.006139159674207236,-0.012221008524790336,0.02960854040053973,-0.999468047510673,1.0,0.0,0.0,0.0,1.0,0.0,0.0,0.0,1.0,0.0001233000075444579,-0.0001618219539523122,0.0022991423029452562,1.2184696791468346e-07,0.0,0.0,0.0,1.2184696791468346e-07,0.0,0.0,0.0,1.2184696791468346e-07,-0.21334415674209595,-0.1640162318944919,9.778755187988281,8.999999999999999e-08,0.0,0.0,0.0,8.999999999999999e-08,0.0,0.0,0.0,8.999999999999999e-08
31224000000,5840,31224000000,base_link,0.006151632836460682,-0.012220486628267762,0.029601796904778044,-0.99946813180437,1.0,0.0,0.0,0.0,1.0,0.0,0.0,0.0,1.0,-0.00012912449892610312,0.0001612436026334762,-0.0003824775048997253,1.2184696791468346e-07,0.0,0.0,0.0,1.2184696791468346e-07,0.0,0.0,0.0,1.2184696791468346e-07,-0.21625976264476776,-0.12231268733739734,9.746271133422852,8.999999999999999e-08,0.0,0.0,0.0,8.999999999999999e-08,0.0,0.0,0.0,8.999999999999999e-08
31228000000,5841,31228000000,base_link,0.006148709886662001,-0.012213991074513274,0.02959981600289796,-0.9994683425386126,1.0,0.0,0.0,0.0,1.0,0.0,0.0,0.0,1.0,0.0010939785279333591,-0.0007676491513848305,-0.0001500911603216081,1.2184696791468346e-07,0.0,0.0,0.0,1.2184696791468346e-07,0.0,0.0,0.0,1.2184696791468346e-07,-0.1851823329925537,-0.1819685846567142,9.790224075317383,8.999999999999999e-08,0.0,0.0,0.0,8.999999999999999e-08,0.0,0.0,0.0,8.999999999999999e-08
31233000000,5842,31233000000,base_link,0.006153874851238109,-0.012209927196354511,0.02959012222774049,-0.9994685954197036,1.0,0.0,0.0,0.0,1.0,0.0,0.0,0.0,1.0,0.0007763424073345959,-0.0021748882718384266,0.00177027122117579,1.2184696791468346e-07,0.0,0.0,0.0,1.2184696791468346e-07,0.0,0.0,0.0,1.2184696791468346e-07,-0.203770712018013,-0.17710405588149905,9.798043251037598,8.999999999999999e-08,0.0,0.0,0.0,8.999999999999999e-08,0.0,0.0,0.0,8.999999999999999e-08
31238000000,5843,31238000000,base_link,0.006163337806545568,-0.012196653902523866,0.0295858232491924,-0.9994688483007947,1.0,0.0,0.0,0.0,1.0,0.0,0.0,0.0,1.0,5.9486483223736286e-05,-0.002205237979069352,0.001305631594732404,1.2184696791468346e-07,0.0,0.0,0.0,1.2184696791468346e-07,0.0,0.0,0.0,1.2184696791468346e-07,-0.22228501737117767,-0.15379290282726168,9.75082015991211,8.999999999999999e-08,0.0,0.0,0.0,8.999999999999999e-08,0.0,0.0,0.0,8.999999999999999e-08
31242000000,5844,31242000000,base_link,0.006164701322949345,-0.01218815308074257,0.029592103129620462,-0.9994687218602492,1.0,0.0,0.0,0.0,1.0,0.0,0.0,0.0,1.0,0.00044393865391612053,-0.002968914108350873,-0.0008790080901235339,1.2184696791468346e-07,0.0,0.0,0.0,1.2184696791468346e-07,0.0,0.0,0.0,1.2184696791468346e-07,-0.29989728331565857,-0.13480058312415957,9.819068908691406,8.999999999999999e-08,0.0,0.0,0.0,8.999999999999999e-08,0.0,0.0,0.0,8.999999999999999e-08
31249000000,5845,31249000000,base_link,0.0061794523906559045,-0.012186063189746488,0.029589026409679198,-0.9994687640070976,1.0,0.0,0.0,0.0,1.0,0.0,0.0,0.0,1.0,-0.002638956531882286,-0.0011704657226800919,-0.00022560200886800872,1.2184696791468346e-07,0.0,0.0,0.0,1.2184696791468346e-07,0.0,0.0,0.0,1.2184696791468346e-07,-0.22933652997016907,-0.16284528374671817,9.821537017822266,8.999999999999999e-08,0.0,0.0,0.0,8.999999999999999e-08,0.0,0.0,0.0,8.999999999999999e-08
31253000000,5846,31253000000,base_link,0.006185573232585349,-0.012180481037224572,0.02958084992106802,-0.9994690168881888,1.0,0.0,0.0,0.0,1.0,0.0,0.0,0.0,1.0,-0.0013221419649198651,-0.001761767081916332,0.0020008885767310858,1.2184696791468346e-07,0.0,0.0,0.0,1.2184696791468346e-07,0.0,0.0,0.0,1.2184696791468346e-07,-0.2593526840209961,-0.1867908239364612,9.822794914245605,8.999999999999999e-08,0.0,0.0,0.0,8.999999999999999e-08,0.0,0.0,0.0,8.999999999999999e-08
31258000000,5847,31258000000,base_link,0.006188291704314302,-0.012172224206183486,0.029566941461059426,-0.9994695226503709,1.0,0.0,0.0,0.0,1.0,0.0,0.0,0.0,1.0,0.0004857692983932793,-0.0012153927236795423,0.002348120091482997,1.2184696791468346e-07,0.0,0.0,0.0,1.2184696791468346e-07,0.0,0.0,0.0,1.2184696791468346e-07,-0.22831375896930695,-0.17318321764469027,9.85529899597168,8.999999999999999e-08,0.0,0.0,0.0,8.999999999999999e-08,0.0,0.0,0.0,8.999999999999999e-08
31263000000,5848,31263000000,base_link,0.0061932686544333825,-0.012164910740150085,0.029563316832087516,-0.9994696912377649,1.0,0.0,0.0,0.0,1.0,0.0,0.0,0.0,1.0,0.0003794591757468879,-0.0022321916185319424,0.0016898089088499548,1.2184696791468346e-07,0.0,0.0,0.0,1.2184696791468346e-07,0.0,0.0,0.0,1.2184696791468346e-07,-0.2423819750547409,-0.17615322768688083,9.799354553222656,8.999999999999999e-08,0.0,0.0,0.0,8.999999999999999e-08,0.0,0.0,0.0,8.999999999999999e-08
31268000000,5849,31268000000,base_link,0.006192125421167523,-0.012167597601742653,0.029558048476023724,-0.9994698176783104,1.0,0.0,0.0,0.0,1.0,0.0,0.0,0.0,1.0,0.000646448228508234,-0.0005333386361598966,0.0014347692485898733,1.2184696791468346e-07,0.0,0.0,0.0,1.2184696791468346e-07,0.0,0.0,0.0,1.2184696791468346e-07,-0.1810614913702011,-0.19030781090259433,9.796090126037598,8.999999999999999e-08,0.0,0.0,0.0,8.999999999999999e-08,0.0,0.0,0.0,8.999999999999999e-08
31272000000,5850,31272000000,base_link,0.006202150444212544,-0.012161244622874144,0.029553707350627012,-0.9994700284125531,1.0,0.0,0.0,0.0,1.0,0.0,0.0,0.0,1.0,-0.0007356466958299279,-0.0017906907014548776,0.0013227430172264578,1.2184696791468346e-07,0.0,0.0,0.0,1.2184696791468346e-07,0.0,0.0,0.0,1.2184696791468346e-07,-0.19645977020263672,-0.1647012382745731,9.808374404907227,8.999999999999999e-08,0.0,0.0,0.0,8.999999999999999e-08,0.0,0.0,0.0,8.999999999999999e-08
31279000000,5851,31279000000,base_link,0.006211190943218132,-0.012142663131036903,0.029535794940009963,-0.9994707449089777,1.0,0.0,0.0,0.0,1.0,0.0,0.0,0.0,1.0,-0.0008341347565874457,-0.0034803107846528287,0.0026151547208428387,1.2184696791468346e-07,0.0,0.0,0.0,1.2184696791468346e-07,0.0,0.0,0.0,1.2184696791468346e-07,-0.17737917602062225,-0.1957889199256885,9.803607940673828,8.999999999999999e-08,0.0,0.0,0.0,8.999999999999999e-08,0.0,0.0,0.0,8.999999999999999e-08
31283000000,5852,31283000000,base_link,0.0062045883759810965,-0.012137497507916288,0.02952778703879283,-0.9994709977900688,1.0,0.0,0.0,0.0,1.0,0.0,0.0,0.0,1.0,0.0018226630054414272,-0.0023831396829336877,0.0031358511187136178,1.2184696791468346e-07,0.0,0.0,0.0,1.2184696791468346e-07,0.0,0.0,0.0,1.2184696791468346e-07,-0.20210431516170502,-0.17270588874816775,9.768391609191895,8.999999999999999e-08,0.0,0.0,0.0,8.999999999999999e-08,0.0,0.0,0.0,8.999999999999999e-08
31288000000,5853,31288000000,base_link,0.006209503093644172,-0.012131946636258502,0.029521338570970723,-0.9994712928180083,1.0,0.0,0.0,0.0,1.0,0.0,0.0,0.0,1.0,0.0011187699856236577,-0.001423041336238384,0.002425359096378088,1.2184696791468346e-07,0.0,0.0,0.0,1.2184696791468346e-07,0.0,0.0,0.0,1.2184696791468346e-07,-0.2113669216632843,-0.19058007001876712,9.799962997436523,8.999999999999999e-08,0.0,0.0,0.0,8.999999999999999e-08,0.0,0.0,0.0,8.999999999999999e-08
31293000000,5854,31293000000,base_link,0.006214075697435349,-0.012135285786186226,0.029521001396182578,-0.9994712085243114,1.0,0.0,0.0,0.0,1.0,0.0,0.0,0.0,1.0,0.0007006325176917017,0.0004319357685744763,0.0006162103964015841,1.2184696791468346e-07,0.0,0.0,0.0,1.2184696791468346e-07,0.0,0.0,0.0,1.2184696791468346e-07,-0.23587822914123535,-0.10277818888425706,9.847158432006836,8.999999999999999e-08,0.0,0.0,0.0,8.999999999999999e-08,0.0,0.0,0.0,8.999999999999999e-08
31297000000,5855,31297000000,base_link,0.0062130694414271525,-0.012130888025961918,0.0295172924735137,-0.9994713771117054,1.0,0.0,0.0,0.0,1.0,0.0,0.0,0.0,1.0,0.00033659394830465317,0.0005794335156679153,-0.00042465570732019847,1.2184696791468346e-07,0.0,0.0,0.0,1.2184696791468346e-07,0.0,0.0,0.0,1.2184696791468346e-07,-0.20086483657360077,-0.13367751240730166,9.755574226379395,8.999999999999999e-08,0.0,0.0,0.0,8.999999999999999e-08,0.0,0.0,0.0,8.999999999999999e-08
31304000000,5856,31304000000,base_link,0.006228420443180484,-0.012134738864972348,0.029518135410483926,-0.9994712085243114,1.0,0.0,0.0,0.0,1.0,0.0,0.0,0.0,1.0,-0.0024298964999616146,0.0014454931952059267,-0.0013214793289080264,1.2184696791468346e-07,0.0,0.0,0.0,1.2184696791468346e-07,0.0,0.0,0.0,1.2184696791468346e-07,-0.22355960309505463,-0.13746218383312106,9.832919120788574,8.999999999999999e-08,0.0,0.0,0.0,8.999999999999999e-08,0.0,0.0,0.0,8.999999999999999e-08
31308000000,5857,31308000000,base_link,0.006230771117801729,-0.012135633497686442,0.029515395865330696,-0.9994712506711598,1.0,0.0,0.0,0.0,1.0,0.0,0.0,0.0,1.0,-0.0018069413490593433,0.0012907758355140684,-0.0010923093650490048,1.2184696791468346e-07,0.0,0.0,0.0,1.2184696791468346e-07,0.0,0.0,0.0,1.2184696791468346e-07,-0.24596533179283142,-0.10819926857948182,9.829986572265625,8.999999999999999e-08,0.0,0.0,0.0,8.999999999999999e-08,0.0,0.0,0.0,8.999999999999999e-08
31313000000,5858,31313000000,base_link,0.0062402528416276625,-0.01212799833266089,0.029512276998540865,-0.9994713349648567,1.0,0.0,0.0,0.0,1.0,0.0,0.0,0.0,1.0,-0.0009477871935814619,-0.0005886452272534369,0.0005824537947773934,1.2184696791468346e-07,0.0,0.0,0.0,1.2184696791468346e-07,0.0,0.0,0.0,1.2184696791468346e-07,-0.23789596557617188,-0.169173017144202,9.826391220092773,8.999999999999999e-08,0.0,0.0,0.0,8.999999999999999e-08,0.0,0.0,0.0,8.999999999999999e-08
31318000000,5859,31318000000,base_link,0.006245491233916411,-0.01212834308071082,0.02949727272047098,-0.999471756433342,1.0,0.0,0.0,0.0,1.0,0.0,0.0,0.0,1.0,-0.00012495135888457298,0.0006085811182856563,0.0022742508444935083,1.2184696791468346e-07,0.0,0.0,0.0,1.2184696791468346e-07,0.0,0.0,0.0,1.2184696791468346e-07,-0.20052053034305573,-0.17992937564849734,9.82414722442627,8.999999999999999e-08,0.0,0.0,0.0,8.999999999999999e-08,0.0,0.0,0.0,8.999999999999999e-08
31323000000,5860,31322000000,base_link,0.0062435218565652885,-0.012127188322916071,0.029481467652279325,-0.9994722200486756,1.0,0.0,0.0,0.0,1.0,0.0,0.0,0.0,1.0,-0.0007285615429282188,-0.0005285567604005331,0.00469027366489172,1.2184696791468346e-07,0.0,0.0,0.0,1.2184696791468346e-07,0.0,0.0,0.0,1.2184696791468346e-07,-0.23266315460205078,-0.16143187880515933,9.804997444152832,8.999999999999999e-08,0.0,0.0,0.0,8.999999999999999e-08,0.0,0.0,0.0,8.999999999999999e-08
31329000000,5861,31329000000,base_link,0.00625160911239557,-0.012130019735028143,0.029485555896584914,-0.9994720093144329,1.0,0.0,0.0,0.0,1.0,0.0,0.0,0.0,1.0,-0.0013348469510674477,0.001975888852030039,7.008423563092923e-05,1.2184696791468346e-07,0.0,0.0,0.0,1.2184696791468346e-07,0.0,0.0,0.0,1.2184696791468346e-07,-0.2522070109844208,-0.1702723801136005,9.777814865112305,8.999999999999999e-08,0.0,0.0,0.0,8.999999999999999e-08,0.0,0.0,0.0,8.999999999999999e-08
31333000000,5862,31333000000,base_link,0.006253406938902364,-0.012135025990377827,0.029483153526219774,-0.9994720514612816,1.0,0.0,0.0,0.0,1.0,0.0,0.0,0.0,1.0,-0.0019126113038510084,0.002976698335260153,-0.0011478846427053217,1.2184696791468346e-07,0.0,0.0,0.0,1.2184696791468346e-07,0.0,0.0,0.0,1.2184696791468346e-07,-0.2148866355419159,-0.1463698595762241,9.806800842285156,8.999999999999999e-08,0.0,0.0,0.0,8.999999999999999e-08,0.0,0.0,0.0,8.999999999999999e-08
31338000000,5863,31338000000,base_link,0.006265921589459814,-0.01213612345480038,0.02948408075688702,-0.9994719671675845,1.0,0.0,0.0,0.0,1.0,0.0,0.0,0.0,1.0,-0.0014262765180319548,0.002014107536524534,-0.0024841234553605322,1.2184696791468346e-07,0.0,0.0,0.0,1.2184696791468346e-07,0.0,0.0,0.0,1.2184696791468346e-07,-0.2355925440788269,-0.16305038332939029,9.8155517578125,8.999999999999999e-08,0.0,0.0,0.0,8.999999999999999e-08,0.0,0.0,0.0,8.999999999999999e-08
31343000000,5864,31343000000,base_link,0.0062612060815104035,-0.012127390166807767,0.029475651387184887,-0.9994723886360695,1.0,0.0,0.0,0.0,1.0,0.0,0.0,0.0,1.0,0.00036362529499456286,-0.0012560193426907065,-0.0011068014428019521,1.2184696791468346e-07,0.0,0.0,0.0,1.2184696791468346e-07,0.0,0.0,0.0,1.2184696791468346e-07,-0.21931283175945282,-0.20854179561138034,9.807499885559082,8.999999999999999e-08,0.0,0.0,0.0,8.999999999999999e-08,0.0,0.0,0.0,8.999999999999999e-08
31348000000,5865,31348000000,base_link,0.006253589355731074,-0.012133468532616449,0.029460225640629945,-0.9994728101045547,1.0,0.0,0.0,0.0,1.0,0.0,0.0,0.0,1.0,0.0034850870724767447,0.0012177489697933201,0.002897104015573859,1.2184696791468346e-07,0.0,0.0,0.0,1.2184696791468346e-07,0.0,0.0,0.0,1.2184696791468346e-07,-0.2374984323978424,-0.17846785485744357,9.784992218017578,8.999999999999999e-08,0.0,0.0,0.0,8.999999999999999e-08,0.0,0.0,0.0,8.999999999999999e-08
31352000000,5866,31352000000,base_link,0.006238833019668453,-0.012133121808932995,0.029454746550323485,-0.9994730629856458,1.0,0.0,0.0,0.0,1.0,0.0,0.0,0.0,1.0,0.006082737818360329,0.0014243503101170065,0.002236934844404459,1.2184696791468346e-07,0.0,0.0,0.0,1.2184696791468346e-07,0.0,0.0,0.0,1.2184696791468346e-07,-0.24109065532684326,-0.18255479633808017,9.83179759979248,8.999999999999999e-08,0.0,0.0,0.0,8.999999999999999e-08,0.0,0.0,0.0,8.999999999999999e-08
31359000000,5867,31359000000,base_link,0.006233783958925748,-0.012126267019149404,0.02945997275953882,-0.9994729786919487,1.0,0.0,0.0,0.0,1.0,0.0,0.0,0.0,1.0,0.003333847038447857,-0.0007108370773494247,-0.002578247804194689,1.2184696791468346e-07,0.0,0.0,0.0,1.2184696791468346e-07,0.0,0.0,0.0,1.2184696791468346e-07,-0.23603935539722443,-0.1775367259979236,9.826483726501465,8.999999999999999e-08,0.0,0.0,0.0,8.999999999999999e-08,0.0,0.0,0.0,8.999999999999999e-08
31363000000,5868,31363000000,base_link,0.006232292355615169,-0.012123671695243443,0.0294602677874784,-0.9994730208387972,1.0,0.0,0.0,0.0,1.0,0.0,0.0,0.0,1.0,0.001627797493711114,-0.0010134079493582253,-0.003349517472088337,1.2184696791468346e-07,0.0,0.0,0.0,1.2184696791468346e-07,0.0,0.0,0.0,1.2184696791468346e-07,-0.2173158824443817,-0.1453889161348331,9.809947967529297,8.999999999999999e-08,0.0,0.0,0.0,8.999999999999999e-08,0.0,0.0,0.0,8.999999999999999e-08
31368000000,5869,31368000000,base_link,0.006238458966387919,-0.012127280519147188,0.029464440325480956,-0.9994728101045547,1.0,0.0,0.0,0.0,1.0,0.0,0.0,0.0,1.0,-0.0008759938646107912,0.0008900593966245646,-0.004165480844676495,1.2184696791468346e-07,0.0,0.0,0.0,1.2184696791468346e-07,0.0,0.0,0.0,1.2184696791468346e-07,-0.22301024198532104,-0.14707452058791995,9.799124717712402,8.999999999999999e-08,0.0,0.0,0.0,8.999999999999999e-08,0.0,0.0,0.0,8.999999999999999e-08
31373000000,5870,31373000000,base_link,0.006242033875249502,-0.012124872551153751,0.029463808122753343,-0.9994728522514031,1.0,0.0,0.0,0.0,1.0,0.0,0.0,0.0,1.0,-0.0011160257272422314,0.0005768346600234505,-0.0025419818703085184,1.2184696791468346e-07,0.0,0.0,0.0,1.2184696791468346e-07,0.0,0.0,0.0,1.2184696791468346e-07,-0.22099937498569489,-0.09571920335292695,9.814400672912598,8.999999999999999e-08,0.0,0.0,0.0,8.999999999999999e-08,0.0,0.0,0.0,8.999999999999999e-08
31378000000,5871,31377000000,base_link,0.006236862654500568,-0.012123350325523549,0.029460815696509046,-0.9994729786919487,1.0,0.0,0.0,0.0,1.0,0.0,0.0,0.0,1.0,0.0004709939821623266,0.00031705247238278373,-0.0012620685156434774,1.2184696791468346e-07,0.0,0.0,0.0,1.2184696791468346e-07,0.0,0.0,0.0,1.2184696791468346e-07,-0.2529546022415161,-0.12685038149356723,9.7808837890625,8.999999999999999e-08,0.0,0.0,0.0,8.999999999999999e-08,0.0,0.0,0.0,8.999999999999999e-08
31384000000,5872,31384000000,base_link,0.006249312109151727,-0.01211955414570728,0.029462375129903906,-0.9994728522514033,1.0,0.0,0.0,0.0,1.0,0.0,0.0,0.0,1.0,-0.0014236194547265768,-0.000934822950512171,-0.0022045420482754707,1.2184696791468346e-07,0.0,0.0,0.0,1.2184696791468346e-07,0.0,0.0,0.0,1.2184696791468346e-07,-0.23835937678813934,-0.1580522507429111,9.824576377868652,8.999999999999999e-08,0.0,0.0,0.0,8.999999999999999e-08,0.0,0.0,0.0,8.999999999999999e-08
31389000000,5873,31388000000,base_link,0.006253749052774261,-0.012115284472389775,0.02946629478681545,-0.9994728101045547,1.0,0.0,0.0,0.0,1.0,0.0,0.0,0.0,1.0,-0.0015587005764245987,-0.0012331111356616025,-0.0033143211621791124,1.2184696791468346e-07,0.0,0.0,0.0,1.2184696791468346e-07,0.0,0.0,0.0,1.2184696791468346e-07,-0.18498864769935608,-0.14679311215877414,9.82847785949707,8.999999999999999e-08,0.0,0.0,0.0,8.999999999999999e-08,0.0,0.0,0.0,8.999999999999999e-08
31393000000,5874,31393000000,base_link,0.006255333510860467,-0.01212039872903877,0.02946755919227073,-0.9994727258108578,1.0,0.0,0.0,0.0,1.0,0.0,0.0,0.0,1.0,-0.001060382928699255,0.0013589435257017608,-0.0031090732663869858,1.2184696791468346e-07,0.0,0.0,0.0,1.2184696791468346e-07,0.0,0.0,0.0,1.2184696791468346e-07,-0.2157134860754013,-0.1507847160100925,9.821002006530762,8.999999999999999e-08,0.0,0.0,0.0,8.999999999999999e-08,0.0,0.0,0.0,8.999999999999999e-08
31398000000,5875,31398000000,base_link,0.00625680371147454,-0.01211335855897618,0.02948003465943,-0.9994724729297666,1.0,0.0,0.0,0.0,1.0,0.0,0.0,0.0,1.0,0.00012678990606218576,3.0030496418475603e-05,-0.004105588421225548,1.2184696791468346e-07,0.0,0.0,0.0,1.2184696791468346e-07,0.0,0.0,0.0,1.2184696791468346e-07,-0.1647610068321228,-0.16558049619197726,9.838708877563477,8.999999999999999e-08,0.0,0.0,0.0,8.999999999999999e-08,0.0,0.0,0.0,8.999999999999999e-08
31403000000,5876,31403000000,base_link,0.0062592663386621394,-0.012114290070182722,0.029474429128578117,-0.999472515076615,1.0,0.0,0.0,0.0,1.0,0.0,0.0,0.0,1.0,-0.0006528976373374462,0.0002472675405442712,-0.002228829311206937,1.2184696791468346e-07,0.0,0.0,0.0,1.2184696791468346e-07,0.0,0.0,0.0,1.2184696791468346e-07,-0.2242077887058258,-0.18403089046478152,9.820988655090332,8.999999999999999e-08,0.0,0.0,0.0,8.999999999999999e-08,0.0,0.0,0.0,8.999999999999999e-08
31407000000,5877,31407000000,base_link,0.0062606552090294755,-0.012111422108850457,0.02947906528191424,-0.9994724307829181,1.0,0.0,0.0,0.0,1.0,0.0,0.0,0.0,1.0,-0.000723276287317276,0.00031009688973426786,-0.002758751856163144,1.2184696791468346e-07,0.0,0.0,0.0,1.2184696791468346e-07,0.0,0.0,0.0,1.2184696791468346e-07,-0.19022724032402039,-0.1187279298901546,9.774690628051758,8.999999999999999e-08,0.0,0.0,0.0,8.999999999999999e-08,0.0,0.0,0.0,8.999999999999999e-08
31414000000,5878,31414000000,base_link,0.006250230449468108,-0.01210698088468862,0.02949196221755862,-0.999472177901827,1.0,0.0,0.0,0.0,1.0,0.0,0.0,0.0,1.0,0.0020925994031131268,-0.00018064631149172837,-0.004533903673291206,1.2184696791468346e-07,0.0,0.0,0.0,1.2184696791468346e-07,0.0,0.0,0.0,1.2184696791468346e-07,-0.19526340067386627,-0.2247224897146213,9.793241500854492,8.999999999999999e-08,0.0,0.0,0.0,8.999999999999999e-08,0.0,0.0,0.0,8.999999999999999e-08
31418000000,5879,31418000000,base_link,0.00625948003635498,-0.01211092984683074,0.029475735680881965,-0.9994725572234636,1.0,0.0,0.0,0.0,1.0,0.0,0.0,0.0,1.0,-0.0001195479417219758,0.0005085514858365057,-0.0014788969419896603,1.2184696791468346e-07,0.0,0.0,0.0,1.2184696791468346e-07,0.0,0.0,0.0,1.2184696791468346e-07,-0.2302883267402649,-0.13730469346046328,9.762771606445312,8.999999999999999e-08,0.0,0.0,0.0,8.999999999999999e-08,0.0,0.0,0.0,8.999999999999999e-08
31423000000,5880,31423000000,base_link,0.006256075031976457,-0.012104335511400057,0.029475693534033398,-0.9994726836640091,1.0,0.0,0.0,0.0,1.0,0.0,0.0,0.0,1.0,-0.00020159268751740456,-0.00043096905574202527,0.0009039882570505142,1.2184696791468346e-07,0.0,0.0,0.0,1.2184696791468346e-07,0.0,0.0,0.0,1.2184696791468346e-07,-0.19434309005737305,-0.16890837252139926,9.784637451171875,8.999999999999999e-08,0.0,0.0,0.0,8.999999999999999e-08,0.0,0.0,0.0,8.999999999999999e-08
31428000000,5881,31428000000,base_link,0.006250283462301001,-0.012102411573619984,0.029464482472329523,-0.9994730208387972,1.0,0.0,0.0,0.0,1.0,0.0,0.0,0.0,1.0,0.0022480743937194347,-0.000725386198610067,0.0024662711657583714,1.2184696791468346e-07,0.0,0.0,0.0,1.2184696791468346e-07,0.0,0.0,0.0,1.2184696791468346e-07,-0.19623754918575287,-0.1598731428384769,9.788578033447266,8.999999999999999e-08,0.0,0.0,0.0,8.999999999999999e-08,0.0,0.0,0.0,8.999999999999999e-08
31432000000,5882,31432000000,base_link,0.006244464563028467,-0.012104566331250103,0.02945782327026475,-0.9994732737198883,1.0,0.0,0.0,0.0,1.0,0.0,0.0,0.0,1.0,0.002990382257848978,0.0006091543473303321,0.0024944553151726723,1.2184696791468346e-07,0.0,0.0,0.0,1.2184696791468346e-07,0.0,0.0,0.0,1.2184696791468346e-07,-0.18923319876194,-0.20916323363780856,9.833377838134766,8.999999999999999e-08,0.0,0.0,0.0,8.999999999999999e-08,0.0,0.0,0.0,8.999999999999999e-08
31439000000,5883,31439000000,base_link,0.006247241974490884,-0.012102446147206652,0.02944256611110385,-0.9994736951883734,1.0,0.0,0.0,0.0,1.0,0.0,0.0,0.0,1.0,-0.0002785031683743,6.160093471407909e-05,0.0015004610177129507,1.2184696791468346e-07,0.0,0.0,0.0,1.2184696791468346e-07,0.0,0.0,0.0,1.2184696791468346e-07,-0.12539155781269073,-0.1317976862192142,9.81144905090332,8.999999999999999e-08,0.0,0.0,0.0,8.999999999999999e-08,0.0,0.0,0.0,8.999999999999999e-08
31443000000,5884,31443000000,base_link,0.00623952251576831,-0.012105403012047494,0.029435906909039133,-0.9994739480694645,1.0,0.0,0.0,0.0,1.0,0.0,0.0,0.0,1.0,0.0003911321982741356,0.0006415606476366522,0.0016342524904757738,1.2184696791468346e-07,0.0,0.0,0.0,1.2184696791468346e-07,0.0,0.0,0.0,1.2184696791468346e-07,-0.20061559975147247,-0.11776234209537387,9.795255661010742,8.999999999999999e-08,0.0,0.0,0.0,8.999999999999999e-08,0.0,0.0,0.0,8.999999999999999e-08
31448000000,5885,31448000000,base_link,0.0062340266325769415,-0.012108350327992972,0.029429332000671382,-0.9994741166568585,1.0,0.0,0.0,0.0,1.0,0.0,0.0,0.0,1.0,0.002033077646046877,0.0019477116875350477,0.0011561937863007186,1.2184696791468346e-07,0.0,0.0,0.0,1.2184696791468346e-07,0.0,0.0,0.0,1.2184696791468346e-07,-0.2510331869125366,-0.1645047962665546,9.783458709716797,8.999999999999999e-08,0.0,0.0,0.0,8.999999999999999e-08,0.0,0.0,0.0,8.999999999999999e-08
31453000000,5886,31453000000,base_link,0.006227883729406477,-0.012112828430647255,0.02943232442691568,-0.999473990216313,1.0,0.0,0.0,0.0,1.0,0.0,0.0,0.0,1.0,0.002715454902499914,0.0018955166451632974,-0.0021441080607473855,1.2184696791468346e-07,0.0,0.0,0.0,1.2184696791468346e-07,0.0,0.0,0.0,1.2184696791468346e-07,-0.2282363325357437,-0.1967507153749454,9.845487594604492,8.999999999999999e-08,0.0,0.0,0.0,8.999999999999999e-08,0.0,0.0,0.0,8.999999999999999e-08
31457000000,5887,31457000000,base_link,0.006229342405491659,-0.012108628892319848,0.029436539111766746,-0.9994739059226161,1.0,0.0,0.0,0.0,1.0,0.0,0.0,0.0,1.0,0.0023317267186939716,-0.0004292256198823456,-0.0029426817782223225,1.2184696791468346e-07,0.0,0.0,0.0,1.2184696791468346e-07,0.0,0.0,0.0,1.2184696791468346e-07,-0.1956414133310318,-0.1528436839580524,9.810758590698242,8.999999999999999e-08,0.0,0.0,0.0,8.999999999999999e-08,0.0,0.0,0.0,8.999999999999999e-08
31464000000,5888,31464000000,base_link,0.006218481360193754,-0.012109717137119289,0.029440922384011914,-0.999473821628919,1.0,0.0,0.0,0.0,1.0,0.0,0.0,0.0,1.0,0.0015682638622820377,0.0010835970751941202,-0.0026302747428417206,1.2184696791468346e-07,0.0,0.0,0.0,1.2184696791468346e-07,0.0,0.0,0.0,1.2184696791468346e-07,-0.2551218271255493,-0.22812840342521548,9.798489570617676,8.999999999999999e-08,0.0,0.0,0.0,8.999999999999999e-08,0.0,0.0,0.0,8.999999999999999e-08
31468000000,5889,31468000000,base_link,0.006220909413794687,-0.012121993065292597,0.029431270755702954,-0.9994739480694645,1.0,0.0,0.0,0.0,1.0,0.0,0.0,0.0,1.0,-0.00030544097535312176,0.003536903765052557,-0.00045805284753441854,1.2184696791468346e-07,0.0,0.0,0.0,1.2184696791468346e-07,0.0,0.0,0.0,1.2184696791468346e-07,-0.26009953022003174,-0.15778708457946658,9.823713302612305,8.999999999999999e-08,0.0,0.0,0.0,8.999999999999999e-08,0.0,0.0,0.0,8.999999999999999e-08
31473000000,5890,31473000000,base_link,0.006227838948379935,-0.012128308177851897,0.02942406364460759,-0.99947407451001,1.0,0.0,0.0,0.0,1.0,0.0,0.0,0.0,1.0,-0.0024065119214355946,0.0026912582106888294,0.0012423220323398705,1.2184696791468346e-07,0.0,0.0,0.0,1.2184696791468346e-07,0.0,0.0,0.0,1.2184696791468346e-07,-0.24135690927505493,-0.15571273863315463,9.800307273864746,8.999999999999999e-08,0.0,0.0,0.0,8.999999999999999e-08,0.0,0.0,0.0,8.999999999999999e-08
31478000000,5891,31478000000,base_link,0.006219138258340468,-0.012127920953681202,0.02942903697273186,-0.999473990216313,1.0,0.0,0.0,0.0,1.0,0.0,0.0,0.0,1.0,0.000682706362567842,0.0007255137898027897,-0.00029459578217938553,1.2184696791468346e-07,0.0,0.0,0.0,1.2184696791468346e-07,0.0,0.0,0.0,1.2184696791468346e-07,-0.22760260105133057,-0.20754565298557162,9.811321258544922,8.999999999999999e-08,0.0,0.0,0.0,8.999999999999999e-08,0.0,0.0,0.0,8.999999999999999e-08
31482000000,5892,31482000000,base_link,0.006210216955890826,-0.012125826123601309,0.02943489538467481,-0.9994738637757674,1.0,0.0,0.0,0.0,1.0,0.0,0.0,0.0,1.0,0.003766144160181284,-0.00041037565097212835,-0.003690141486003995,1.2184696791468346e-07,0.0,0.0,0.0,1.2184696791468346e-07,0.0,0.0,0.0,1.2184696791468346e-07,-0.18786080181598663,-0.17738455533981204,9.786772727966309,8.999999999999999e-08,0.0,0.0,0.0,8.999999999999999e-08,0.0,0.0,0.0,8.999999999999999e-08
31487000000,5893,31487000000,base_link,0.006213405628398477,-0.012138250224288912,0.02943409459455315,-0.9994737373352218,1.0,0.0,0.0,0.0,1.0,0.0,0.0,0.0,1.0,0.0013266619062051177,0.001855966635048389,-0.0028755308594554667,1.2184696791468346e-07,0.0,0.0,0.0,1.2184696791468346e-07,0.0,0.0,0.0,1.2184696791468346e-07,-0.24791918694972992,-0.17933528125285983,9.810811042785645,8.999999999999999e-08,0.0,0.0,0.0,8.999999999999999e-08,0.0,0.0,0.0,8.999999999999999e-08
31493000000,5894,31493000000,base_link,0.0062104257144998554,-0.012140790230456201,0.029431439343097,-0.9994737794820705,1.0,0.0,0.0,0.0,1.0,0.0,0.0,0.0,1.0,-4.027539398521185e-05,0.0025679445825517178,0.0007305574836209413,1.2184696791468346e-07,0.0,0.0,0.0,1.2184696791468346e-07,0.0,0.0,0.0,1.2184696791468346e-07,-0.18640214204788208,-0.13972614705562472,9.832925796508789,8.999999999999999e-08,0.0,0.0,0.0,8.999999999999999e-08,0.0,0.0,0.0,8.999999999999999e-08
31498000000,5895,31498000000,base_link,0.006215302565853721,-0.012153098756582652,0.029424442966244135,-0.9994737794820705,1.0,0.0,0.0,0.0,1.0,0.0,0.0,0.0,1.0,-0.0009563909843564034,0.002527379896491766,0.001251564361155033,1.2184696791468346e-07,0.0,0.0,0.0,1.2184696791468346e-07,0.0,0.0,0.0,1.2184696791468346e-07,-0.22905084490776062,-0.16537715494632602,9.833996772766113,8.999999999999999e-08,0.0,0.0,0.0,8.999999999999999e-08,0.0,0.0,0.0,8.999999999999999e-08
31503000000,5896,31503000000,base_link,0.006219552812108242,-0.012152055622082008,0.029435485440553966,-0.9994734423072824,1.0,0.0,0.0,0.0,1.0,0.0,0.0,0.0,1.0,-0.0014398002531379461,0.0013207038864493366,-0.0028675133362412453,1.2184696791468346e-07,0.0,0.0,0.0,1.2184696791468346e-07,0.0,0.0,0.0,1.2184696791468346e-07,-0.26908308267593384,-0.13982643187045932,9.819326400756836,8.999999999999999e-08,0.0,0.0,0.0,8.999999999999999e-08,0.0,0.0,0.0,8.999999999999999e-08
31508000000,5897,31508000000,base_link,0.0062147898889542575,-0.012160082291817555,0.029435232559462954,-0.9994734423072824,1.0,0.0,0.0,0.0,1.0,0.0,0.0,0.0,1.0,0.000229906989261508,0.0008397530764341351,-0.0025997450575232506,1.2184696791468346e-07,0.0,0.0,0.0,1.2184696791468346e-07,0.0,0.0,0.0,1.2184696791468346e-07,-0.2246088981628418,-0.11088699102401613,9.807929992675781,8.999999999999999e-08,0.0,0.0,0.0,8.999999999999999e-08,0.0,0.0,0.0,8.999999999999999e-08
31512000000,5898,31512000000,base_link,0.006216027294084756,-0.012163332208964449,0.029431102168308854,-0.9994735266009793,1.0,0.0,0.0,0.0,1.0,0.0,0.0,0.0,1.0,0.0003613575827330351,0.001530592329800129,-3.3415621146559905e-05,1.2184696791468346e-07,0.0,0.0,0.0,1.2184696791468346e-07,0.0,0.0,0.0,1.2184696791468346e-07,-0.23152895271778107,-0.1861545890569675,9.831131935119629,8.999999999999999e-08,0.0,0.0,0.0,8.999999999999999e-08,0.0,0.0,0.0,8.999999999999999e-08
31519000000,5899,31519000000,base_link,0.006210891634739255,-0.012161684859877729,0.029434684650432308,-0.9994734844541309,1.0,0.0,0.0,0.0,1.0,0.0,0.0,0.0,1.0,0.0010033462895080447,8.49370844662188e-05,-0.0011954292422160506,1.2184696791468346e-07,0.0,0.0,0.0,1.2184696791468346e-07,0.0,0.0,0.0,1.2184696791468346e-07,-0.21680282056331635,-0.15869420766830325,9.784736633300781,8.999999999999999e-08,0.0,0.0,0.0,8.999999999999999e-08,0.0,0.0,0.0,8.999999999999999e-08
31523000000,5900,31523000000,base_link,0.006210226175513937,-0.012171959800563532,0.02942785686097349,-0.9994735687478278,1.0,0.0,0.0,0.0,1.0,0.0,0.0,0.0,1.0,0.0008905925205908716,0.0016016080044209957,0.0006540807662531731,1.2184696791468346e-07,0.0,0.0,0.0,1.2184696791468346e-07,0.0,0.0,0.0,1.2184696791468346e-07,-0.2290629744529724,-0.22113977372646212,9.767243385314941,8.999999999999999e-08,0.0,0.0,0.0,8.999999999999999e-08,0.0,0.0,0.0,8.999999999999999e-08
31528000000,5901,31528000000,base_link,0.006202800756914178,-0.012176129375115823,0.029431523636793966,-0.9994734423072823,1.0,0.0,0.0,0.0,1.0,0.0,0.0,0.0,1.0,0.001648779958486557,0.002082850318402052,-0.0003923085459973666,1.2184696791468346e-07,0.0,0.0,0.0,1.2184696791468346e-07,0.0,0.0,0.0,1.2184696791468346e-07,-0.20285604894161224,-0.15258529782295108,9.816417694091797,8.999999999999999e-08,0.0,0.0,0.0,8.999999999999999e-08,0.0,0.0,0.0,8.999999999999999e-08
31533000000,5902,31533000000,base_link,0.006205313433484385,-0.012176357560787839,0.029435232559462954,-0.9994732737198884,1.0,0.0,0.0,0.0,1.0,0.0,0.0,0.0,1.0,0.00017091562040150166,0.0016032150015234947,-0.0008478644303977492,1.2184696791468346e-07,0.0,0.0,0.0,1.2184696791468346e-07,0.0,0.0,0.0,1.2184696791468346e-07,-0.23817186057567596,-0.1363750994205463,9.805964469909668,8.999999999999999e-08,0.0,0.0,0.0,8.999999999999999e-08,0.0,0.0,0.0,8.999999999999999e-08
31537000000,5903,31537000000,base_link,0.006203237701195225,-0.012180416829135045,0.02942895267903478,-0.9994734844541309,1.0,0.0,0.0,0.0,1.0,0.0,0.0,0.0,1.0,0.0007759518921375275,-0.0001457524485886096,0.0009605515515431762,1.2184696791468346e-07,0.0,0.0,0.0,1.2184696791468346e-07,0.0,0.0,0.0,1.2184696791468346e-07,-0.19838660955429077,-0.1388930082321155,9.79870319366455,8.999999999999999e-08,0.0,0.0,0.0,8.999999999999999e-08,0.0,0.0,0.0,8.999999999999999e-08
31542000000,5904,31542000000,base_link,0.006189575207560361,-0.012167179096707831,0.02941930105072582,-0.9994739480694644,1.0,0.0,0.0,0.0,1.0,0.0,0.0,0.0,1.0,0.0033177100121974945,-0.0028421087190508842,0.0014918840024620299,1.2184696791468346e-07,0.0,0.0,0.0,1.2184696791468346e-07,0.0,0.0,0.0,1.2184696791468346e-07,-0.19727881252765656,-0.1304626911878574,9.815783500671387,8.999999999999999e-08,0.0,0.0,0.0,8.999999999999999e-08,0.0,0.0,0.0,8.999999999999999e-08
31549000000,5905,31548000000,base_link,0.0061857885766394595,-0.012172101058360493,0.029416940827209248,-0.9994740323631615,1.0,0.0,0.0,0.0,1.0,0.0,0.0,0.0,1.0,0.002113227965310216,0.0003379816189408304,0.0012172689894214272,1.2184696791468346e-07,0.0,0.0,0.0,1.2184696791468346e-07,0.0,0.0,0.0,1.2184696791468346e-07,-0.23138050734996796,-0.1163003295660007,9.773515701293945,8.999999999999999e-08,0.0,0.0,0.0,8.999999999999999e-08,0.0,0.0,0.0,8.999999999999999e-08
31553000000,5906,31553000000,base_link,0.006184746759227831,-0.012174766846528807,0.02942220918327304,-0.999473821628919,1.0,0.0,0.0,0.0,1.0,0.0,0.0,0.0,1.0,0.00038992130430415273,0.0016356841661036015,-0.0008586656767874958,1.2184696791468346e-07,0.0,0.0,0.0,1.2184696791468346e-07,0.0,0.0,0.0,1.2184696791468346e-07,-0.23649929463863373,-0.16753228008746981,9.845674514770508,8.999999999999999e-08,0.0,0.0,0.0,8.999999999999999e-08,0.0,0.0,0.0,8.999999999999999e-08
31558000000,5907,31558000000,base_link,0.006195227165800122,-0.012189319033793954,0.029417067267754782,-0.9994737373352219,1.0,0.0,0.0,0.0,1.0,0.0,0.0,0.0,1.0,-0.0011899392120540142,0.003271655645221472,0.00025731191271915994,1.2184696791468346e-07,0.0,0.0,0.0,1.2184696791468346e-07,0.0,0.0,0.0,1.2184696791468346e-07,-0.27067673206329346,-0.1738882064819324,9.773037910461426,8.999999999999999e-08,0.0,0.0,0.0,8.999999999999999e-08,0.0,0.0,0.0,8.999999999999999e-08
31563000000,5908,31563000000,base_link,0.006197577840421368,-0.012184841260411925,0.02941664579926967,-0.999473821628919,1.0,0.0,0.0,0.0,1.0,0.0,0.0,0.0,1.0,-0.0009920427110046148,0.0016964925453066826,0.00018436426762491443,1.2184696791468346e-07,0.0,0.0,0.0,1.2184696791468346e-07,0.0,0.0,0.0,1.2184696791468346e-07,-0.1820843368768692,-0.12403497844934343,9.811223983764648,8.999999999999999e-08,0.0,0.0,0.0,8.999999999999999e-08,0.0,0.0,0.0,8.999999999999999e-08
31567000000,5909,31567000000,base_link,0.006194670037146369,-0.0121928040513302,0.029411082415266188,-0.9994739059226161,1.0,0.0,0.0,0.0,1.0,0.0,0.0,0.0,1.0,0.0010793483816087246,0.0019934820011258125,0.0011218460276722906,1.2184696791468346e-07,0.0,0.0,0.0,1.2184696791468346e-07,0.0,0.0,0.0,1.2184696791468346e-07,-0.2636626660823822,-0.1529872864484775,9.85544490814209,8.999999999999999e-08,0.0,0.0,0.0,8.999999999999999e-08,0.0,0.0,0.0,8.999999999999999e-08
31572000000,5910,31572000000,base_link,0.0061951227864956064,-0.012202278201894293,0.02941887958224071,-0.9994735266009793,1.0,0.0,0.0,0.0,1.0,0.0,0.0,0.0,1.0,0.0013408621307462454,0.004188026767224073,-0.0023670878726989035,1.2184696791468346e-07,0.0,0.0,0.0,1.2184696791468346e-07,0.0,0.0,0.0,1.2184696791468346e-07,-0.21937218308448792,-0.1510695517063129,9.825763702392578,8.999999999999999e-08,0.0,0.0,0.0,8.999999999999999e-08,0.0,0.0,0.0,8.999999999999999e-08
31579000000,5911,31578000000,base_link,0.00620253108293816,-0.012202967368721897,0.029429795616005006,-0.9994731472793428,1.0,0.0,0.0,0.0,1.0,0.0,0.0,0.0,1.0,0.0008873165352270007,0.001327276229858398,-0.0026757533196359873,1.2184696791468346e-07,0.0,0.0,0.0,1.2184696791468346e-07,0.0,0.0,0.0,1.2184696791468346e-07,-0.25987187027931213,-0.19326485693454623,9.825056076049805,8.999999999999999e-08,0.0,0.0,0.0,8.999999999999999e-08,0.0,0.0,0.0,8.999999999999999e-08
31583000000,5912,31583000000,base_link,0.006203760914806817,-0.01220579548811143,0.029438267132555707,-0.9994728522514033,1.0,0.0,0.0,0.0,1.0,0.0,0.0,0.0,1.0,0.0005631301319226623,0.0010429210960865016,-0.004128061700612307,1.2184696791468346e-07,0.0,0.0,0.0,1.2184696791468346e-07,0.0,0.0,0.0,1.2184696791468346e-07,-0.21467424929141998,-0.1649637669324863,9.79173469543457,8.999999999999999e-08,0.0,0.0,0.0,8.999999999999999e-08,0.0,0.0,0.0,8.999999999999999e-08
31588000000,5913,31588000000,base_link,0.006200638096749963,-0.012213802072239483,0.0294395736848595,-0.9994727258108578,1.0,0.0,0.0,0.0,1.0,0.0,0.0,0.0,1.0,0.0017511493060737848,0.0031711650080978866,-0.00275270501151681,1.2184696791468346e-07,0.0,0.0,0.0,1.2184696791468346e-07,0.0,0.0,0.0,1.2184696791468346e-07,-0.2557448744773865,-0.20814475417137027,9.819218635559082,8.999999999999999e-08,0.0,0.0,0.0,8.999999999999999e-08,0.0,0.0,0.0,8.999999999999999e-08
31593000000,5914,31593000000,base_link,0.006206965721654914,-0.01221759100806616,0.02944437842558978,-0.9994724729297666,1.0,0.0,0.0,0.0,1.0,0.0,0.0,0.0,1.0,-0.0008389614522457123,0.001944367308169603,-0.002681880490854383,1.2184696791468346e-07,0.0,0.0,0.0,1.2184696791468346e-07,0.0,0.0,0.0,1.2184696791468346e-07,-0.1909736543893814,-0.1822670102119434,9.759379386901855,8.999999999999999e-08,0.0,0.0,0.0,8.999999999999999e-08,0.0,0.0,0.0,8.999999999999999e-08
31597000000,5915,31597000000,base_link,0.0062165923252726065,-0.01221005330762779,0.029456558864809412,-0.999472177901827,1.0,0.0,0.0,0.0,1.0,0.0,0.0,0.0,1.0,-0.001376572996377945,-0.0019034645520150666,-0.00377529626712203,1.2184696791468346e-07,0.0,0.0,0.0,1.2184696791468346e-07,0.0,0.0,0.0,1.2184696791468346e-07,-0.2007218301296234,-0.16103124618530154,9.791382789611816,8.999999999999999e-08,0.0,0.0,0.0,8.999999999999999e-08,0.0,0.0,0.0,8.999999999999999e-08
31604000000,5916,31604000000,base_link,0.006212807999257484,-0.012217013135260408,0.029444799894074947,-0.9994724729297666,1.0,0.0,0.0,0.0,1.0,0.0,0.0,0.0,1.0,0.0022536879405379295,0.0024114255793392663,0.0019355020485818384,1.2184696791468346e-07,0.0,0.0,0.0,1.2184696791468346e-07,0.0,0.0,0.0,1.2184696791468346e-07,-0.18066006898880005,-0.1666346937417972,9.805527687072754,8.999999999999999e-08,0.0,0.0,0.0,8.999999999999999e-08,0.0,0.0,0.0,8.999999999999999e-08
31608000000,5917,31608000000,base_link,0.006217304211885735,-0.012231546224734822,0.029444251985044245,-0.999472262195524,1.0,0.0,0.0,0.0,1.0,0.0,0.0,0.0,1.0,0.0006198736955411732,0.005734631326049566,0.0007087029516696923,1.2184696791468346e-07,0.0,0.0,0.0,1.2184696791468346e-07,0.0,0.0,0.0,1.2184696791468346e-07,-0.20411528646945953,-0.21072393655776858,9.820173263549805,8.999999999999999e-08,0.0,0.0,0.0,8.999999999999999e-08,0.0,0.0,0.0,8.999999999999999e-08
31613000000,5918,31613000000,base_link,0.006220619983483428,-0.012236786263384841,0.029442228936315706,-0.999472262195524,1.0,0.0,0.0,0.0,1.0,0.0,0.0,0.0,1.0,0.0005465795984491706,0.003562332596629858,0.000804238254204392,1.2184696791468346e-07,0.0,0.0,0.0,1.2184696791468346e-07,0.0,0.0,0.0,1.2184696791468346e-07,-0.21079371869564056,-0.14489561319351077,9.79503059387207,8.999999999999999e-08,0.0,0.0,0.0,8.999999999999999e-08,0.0,0.0,0.0,8.999999999999999e-08
31618000000,5919,31618000000,base_link,0.006217520543756607,-0.012231217940297594,0.029437803517222083,-0.9994724729297666,1.0,0.0,0.0,0.0,1.0,0.0,0.0,0.0,1.0,0.0015406118473038077,0.0005087894387543203,0.0011918115196749568,1.2184696791468346e-07,0.0,0.0,0.0,1.2184696791468346e-07,0.0,0.0,0.0,1.2184696791468346e-07,-0.17635618150234222,-0.20260630548000216,9.797188758850098,8.999999999999999e-08,0.0,0.0,0.0,8.999999999999999e-08,0.0,0.0,0.0,8.999999999999999e-08
31622000000,5920,31622000000,base_link,0.00621898514674236,-0.012236789226835127,0.02943135504939992,-0.9994725993703121,1.0,0.0,0.0,0.0,1.0,0.0,0.0,0.0,1.0,0.0014891957398504019,0.0010975510813295843,0.0017094514332711694,1.2184696791468346e-07,0.0,0.0,0.0,1.2184696791468346e-07,0.0,0.0,0.0,1.2184696791468346e-07,-0.23210224509239197,-0.18132001161575198,9.804829597473145,8.999999999999999e-08,0.0,0.0,0.0,8.999999999999999e-08,0.0,0.0,0.0,8.999999999999999e-08
31629000000,5921,31629000000,base_link,0.006220422420131033,-0.012241637102230642,0.029432408720612757,-0.9994724729297666,1.0,0.0,0.0,0.0,1.0,0.0,0.0,0.0,1.0,0.0025616013444960117,0.0008417298085987569,0.0009491898817941545,1.2184696791468346e-07,0.0,0.0,0.0,1.2184696791468346e-07,0.0,0.0,0.0,1.2184696791468346e-07,-0.22189699113368988,-0.09916589409112811,9.780811309814453,8.999999999999999e-08,0.0,0.0,0.0,8.999999999999999e-08,0.0,0.0,0.0,8.999999999999999e-08
31633000000,5922,31633000000,base_link,0.006210886695655443,-0.012236802068453033,0.02942216703642453,-0.9994728522514033,1.0,0.0,0.0,0.0,1.0,0.0,0.0,0.0,1.0,0.002038367558270693,-0.0012008910998702047,0.0011944737052544954,1.2184696791468346e-07,0.0,0.0,0.0,1.2184696791468346e-07,0.0,0.0,0.0,1.2184696791468346e-07,-0.18593019247055054,-0.13284581899642825,9.772388458251953,8.999999999999999e-08,0.0,0.0,0.0,8.999999999999999e-08,0.0,0.0,0.0,8.999999999999999e-08
31638000000,5923,31638000000,base_link,0.006224601214306438,-0.01221503091629138,0.029435569734250988,-0.9994726836640092,1.0,0.0,0.0,0.0,1.0,0.0,0.0,0.0,1.0,-0.0002614873228594661,-0.0044539328664541245,-0.002131641376763582,1.2184696791468346e-07,0.0,0.0,0.0,1.2184696791468346e-07,0.0,0.0,0.0,1.2184696791468346e-07,-0.26709485054016113,-0.1482069492340076,9.809042930603027,8.999999999999999e-08,0.0,0.0,0.0,8.999999999999999e-08,0.0,0.0,0.0,8.999999999999999e-08
31643000000,5924,31643000000,base_link,0.006233924228905949,-0.012207543923780123,0.029435485440553966,-0.9994727679577062,1.0,0.0,0.0,0.0,1.0,0.0,0.0,0.0,1.0,-0.0014477637596428394,-0.0038602794520556927,-0.0012712231837213035,1.2184696791468346e-07,0.0,0.0,0.0,1.2184696791468346e-07,0.0,0.0,0.0,1.2184696791468346e-07,-0.2544609606266022,-0.1267041712999332,9.74942684173584,8.999999999999999e-08,0.0,0.0,0.0,8.999999999999999e-08,0.0,0.0,0.0,8.999999999999999e-08
31647000000,5925,31647000000,base_link,0.006231340100256625,-0.012207230456594323,0.029442271083164218,-0.9994725572234635,1.0,0.0,0.0,0.0,1.0,0.0,0.0,0.0,1.0,0.00023907364811748266,-0.00199438794516027,-0.0023506176657974716,1.2184696791468346e-07,0.0,0.0,0.0,1.2184696791468346e-07,0.0,0.0,0.0,1.2184696791468346e-07,-0.24457353353500366,-0.1450205147266376,9.794548988342285,8.999999999999999e-08,0.0,0.0,0.0,8.999999999999999e-08,0.0,0.0,0.0,8.999999999999999e-08
31654000000,5926,31654000000,base_link,0.006241994033306769,-0.012211752023186133,0.029450278984381295,-0.9994722200486756,1.0,0.0,0.0,0.0,1.0,0.0,0.0,0.0,1.0,-0.0005361898802220821,0.0014745793305337425,-0.002771459985524416,1.2184696791468346e-07,0.0,0.0,0.0,1.2184696791468346e-07,0.0,0.0,0.0,1.2184696791468346e-07,-0.25858238339424133,-0.20500802993774295,9.80335807800293,8.999999999999999e-08,0.0,0.0,0.0,8.999999999999999e-08,0.0,0.0,0.0,8.999999999999999e-08
31659000000,5927,31658000000,base_link,0.00625359725826517,-0.012208642705291692,0.029443114020134442,-0.9994723886360695,1.0,0.0,0.0,0.0,1.0,0.0,0.0,0.0,1.0,-0.002390950918197632,0.00039708660915493954,-0.0010080470237880945,1.2184696791468346e-07,0.0,0.0,0.0,1.2184696791468346e-07,0.0,0.0,0.0,1.2184696791468346e-07,-0.27859222888946533,-0.178931340575217,9.790878295898438,8.999999999999999e-08,0.0,0.0,0.0,8.999999999999999e-08,0.0,0.0,0.0,8.999999999999999e-08
31663000000,5928,31663000000,base_link,0.006258714149092196,-0.012211860353757696,0.029442102495770228,-0.9994723043423726,1.0,0.0,0.0,0.0,1.0,0.0,0.0,0.0,1.0,-0.002323848195374012,0.00044519919902086274,0.0012517842696979642,1.2184696791468346e-07,0.0,0.0,0.0,1.2184696791468346e-07,0.0,0.0,0.0,1.2184696791468346e-07,-0.26500773429870605,-0.14048928022384524,9.812685012817383,8.999999999999999e-08,0.0,0.0,0.0,8.999999999999999e-08,0.0,0.0,0.0,8.999999999999999e-08
31668000000,5929,31668000000,base_link,0.0062628224790052455,-0.0122215169211505,0.029434811090977786,-0.9994724307829181,1.0,0.0,0.0,0.0,1.0,0.0,0.0,0.0,1.0,-0.000511611346155405,0.003356497269123793,0.0020586424507200714,1.2184696791468346e-07,0.0,0.0,0.0,1.2184696791468346e-07,0.0,0.0,0.0,1.2184696791468346e-07,-0.2741253972053528,-0.12210329622030137,9.81692123413086,8.999999999999999e-08,0.0,0.0,0.0,8.999999999999999e-08,0.0,0.0,0.0,8.999999999999999e-08
31672000000,5930,31672000000,base_link,0.006259224191813628,-0.012226214977670449,0.02943628623067568,-0.9994723043423726,1.0,0.0,0.0,0.0,1.0,0.0,0.0,0.0,1.0,0.0020418541971594095,0.0035290378145873547,0.00029478309443220453,1.2184696791468346e-07,0.0,0.0,0.0,1.2184696791468346e-07,0.0,0.0,0.0,1.2184696791468346e-07,-0.12179549783468246,-0.15951170027255893,9.819417953491211,8.999999999999999e-08,0.0,0.0,0.0,8.999999999999999e-08,0.0,0.0,0.0,8.999999999999999e-08
31677000000,5931,31677000000,base_link,0.0062565669647239195,-0.01223187516771656,0.02942869979794377,-0.9994724729297666,1.0,0.0,0.0,0.0,1.0,0.0,0.0,0.0,1.0,0.0023509059101343155,0.0030582216568291187,0.0016778411809355016,1.2184696791468346e-07,0.0,0.0,0.0,1.2184696791468346e-07,0.0,0.0,0.0,1.2184696791468346e-07,-0.21732740104198456,-0.1486145406961429,9.820292472839355,8.999999999999999e-08,0.0,0.0,0.0,8.999999999999999e-08,0.0,0.0,0.0,8.999999999999999e-08
31683000000,5932,31683000000,base_link,0.006249316060418775,-0.01221985969389616,0.029420902630969192,-0.9994729365451003,1.0,0.0,0.0,0.0,1.0,0.0,0.0,0.0,1.0,0.00333545939065516,-0.0019121752120554445,0.0020087976008653645,1.2184696791468346e-07,0.0,0.0,0.0,1.2184696791468346e-07,0.0,0.0,0.0,1.2184696791468346e-07,-0.25777119398117065,-0.21862125396728396,9.763876914978027,8.999999999999999e-08,0.0,0.0,0.0,8.999999999999999e-08,0.0,0.0,0.0,8.999999999999999e-08
31688000000,5933,31688000000,base_link,0.006246697358182783,-0.012225062524781479,0.029429837762853517,-0.9994725993703121,1.0,0.0,0.0,0.0,1.0,0.0,0.0,0.0,1.0,0.0025367855560034513,0.000973483547568321,-0.0013794209808111193,1.2184696791468346e-07,0.0,0.0,0.0,1.2184696791468346e-07,0.0,0.0,0.0,1.2184696791468346e-07,-0.2080574482679367,-0.21518298983573794,9.791016578674316,8.999999999999999e-08,0.0,0.0,0.0,8.999999999999999e-08,0.0,0.0,0.0,8.999999999999999e-08
31693000000,5934,31693000000,base_link,0.006248119485047772,-0.012235284781906641,0.029433799566613572,-0.999472346489221,1.0,0.0,0.0,0.0,1.0,0.0,0.0,0.0,1.0,0.0023749712854623795,0.0030582202598452564,-0.002998743206262589,1.2184696791468346e-07,0.0,0.0,0.0,1.2184696791468346e-07,0.0,0.0,0.0,1.2184696791468346e-07,-0.1653873175382614,-0.20051412284374118,9.801881790161133,8.999999999999999e-08,0.0,0.0,0.0,8.999999999999999e-08,0.0,0.0,0.0,8.999999999999999e-08
31698000000,5935,31698000000,base_link,0.006244208059942607,-0.01223768945717754,0.02943447391618975,-0.999472346489221,1.0,0.0,0.0,0.0,1.0,0.0,0.0,0.0,1.0,0.0022057872265577316,0.0022333040833473206,-0.0003260594094172123,1.2184696791468346e-07,0.0,0.0,0.0,1.2184696791468346e-07,0.0,0.0,0.0,1.2184696791468346e-07,-0.23098188638687134,-0.1588878631591785,9.813915252685547,8.999999999999999e-08,0.0,0.0,0.0,8.999999999999999e-08,0.0,0.0,0.0,8.999999999999999e-08
31702000000,5936,31702000000,base_link,0.006249139899762889,-0.012236947277517044,0.029427140364548854,-0.999472515076615,1.0,0.0,0.0,0.0,1.0,0.0,0.0,0.0,1.0,0.0007136973435990512,0.0008003967814147473,0.0006605730159208177,1.2184696791468346e-07,0.0,0.0,0.0,1.2184696791468346e-07,0.0,0.0,0.0,1.2184696791468346e-07,-0.18647876381874084,-0.13151904940605044,9.802022933959961,8.999999999999999e-08,0.0,0.0,0.0,8.999999999999999e-08,0.0,0.0,0.0,8.999999999999999e-08
31709000000,5937,31708000000,base_link,0.006240806019014369,-0.012231974607937266,0.02942048116248408,-0.9994728522514033,1.0,0.0,0.0,0.0,1.0,0.0,0.0,0.0,1.0,0.0024585402570664883,-0.0011657741852104662,0.0019700450357049704,1.2184696791468346e-07,0.0,0.0,0.0,1.2184696791468346e-07,0.0,0.0,0.0,1.2184696791468346e-07,-0.1990513652563095,-0.1551404595375049,9.820789337158203,8.999999999999999e-08,0.0,0.0,0.0,8.999999999999999e-08,0.0,0.0,0.0,8.999999999999999e-08
31713000000,5938,31713000000,base_link,0.006243636772581932,-0.012224963413833027,0.029423009973394754,-0.9994728522514033,1.0,0.0,0.0,0.0,1.0,0.0,0.0,0.0,1.0,0.0005262828199192882,-0.002536789048463106,0.0007856389274820689,1.2184696791468346e-07,0.0,0.0,0.0,1.2184696791468346e-07,0.0,0.0,0.0,1.2184696791468346e-07,-0.26202356815338135,-0.14010567963123202,9.793193817138672,8.999999999999999e-08,0.0,0.0,0.0,8.999999999999999e-08,0.0,0.0,0.0,8.999999999999999e-08
31718000000,5939,31718000000,base_link,0.006258077995097485,-0.012235068779308023,0.029416477211875625,-0.9994728101045547,1.0,0.0,0.0,0.0,1.0,0.0,0.0,0.0,1.0,-0.001849832129664719,0.0010313405655324461,0.0014665776398032902,1.2184696791468346e-07,0.0,0.0,0.0,1.2184696791468346e-07,0.0,0.0,0.0,1.2184696791468346e-07,-0.1927700638771057,-0.17540624737739444,9.785140037536621,8.999999999999999e-08,0.0,0.0,0.0,8.999999999999999e-08,0.0,0.0,0.0,8.999999999999999e-08
31723000000,5940,31723000000,base_link,0.006258037823882497,-0.012225466541837126,0.0294071627583547,-0.9994731894261912,1.0,0.0,0.0,0.0,1.0,0.0,0.0,0.0,1.0,-0.0009632069850340486,-0.0008318955078721044,0.002086274093016982,1.2184696791468346e-07,0.0,0.0,0.0,1.2184696791468346e-07,0.0,0.0,0.0,1.2184696791468346e-07,-0.185463085770607,-0.16406118869781375,9.764700889587402,8.999999999999999e-08,0.0,0.0,0.0,8.999999999999999e-08,0.0,0.0,0.0,8.999999999999999e-08
31727000000,5941,31727000000,base_link,0.0062610147743308335,-0.012224577177479096,0.02940235801762442,-0.9994732737198883,1.0,0.0,0.0,0.0,1.0,0.0,0.0,0.0,1.0,-0.0001755275297909975,-0.0016950406134128568,0.0023873725440353155,1.2184696791468346e-07,0.0,0.0,0.0,1.2184696791468346e-07,0.0,0.0,0.0,1.2184696791468346e-07,-0.2617115080356598,-0.20252886414527774,9.80671215057373,8.999999999999999e-08,0.0,0.0,0.0,8.999999999999999e-08,0.0,0.0,0.0,8.999999999999999e-08
31733000000,5942,31733000000,base_link,0.00626076288105653,-0.01222336973612371,0.029401220052714616,-0.9994734001604337,1.0,0.0,0.0,0.0,1.0,0.0,0.0,0.0,1.0,0.00039738306077197194,-0.0009938105940818787,0.00042438163654878746,1.2184696791468346e-07,0.0,0.0,0.0,1.2184696791468346e-07,0.0,0.0,0.0,1.2184696791468346e-07,-0.18060202896595,-0.19732320308685183,9.809759140014648,8.999999999999999e-08,0.0,0.0,0.0,8.999999999999999e-08,0.0,0.0,0.0,8.999999999999999e-08
31738000000,5943,31738000000,base_link,0.00626917907986855,-0.012226497822536628,0.029401262199563183,-0.9994732737198884,1.0,0.0,0.0,0.0,1.0,0.0,0.0,0.0,1.0,0.00011421437375247478,0.0011566942557692528,0.00018320610979571925,1.2184696791468346e-07,0.0,0.0,0.0,1.2184696791468346e-07,0.0,0.0,0.0,1.2184696791468346e-07,-0.24006220698356628,-0.2055145651102054,9.852975845336914,8.999999999999999e-08,0.0,0.0,0.0,8.999999999999999e-08,0.0,0.0,0.0,8.999999999999999e-08
31743000000,5944,31743000000,base_link,0.006268061529838502,-0.012230357551897914,0.02939460299749841,-0.9994734423072824,1.0,0.0,0.0,0.0,1.0,0.0,0.0,0.0,1.0,0.0003584695514291525,0.0015062624588608744,0.001056734938174486,1.2184696791468346e-07,0.0,0.0,0.0,1.2184696791468346e-07,0.0,0.0,0.0,1.2184696791468346e-07,-0.22568677365779877,-0.1448008120059955,9.791309356689453,8.999999999999999e-08,0.0,0.0,0.0,8.999999999999999e-08,0.0,0.0,0.0,8.999999999999999e-08
31747000000,5945,31747000000,base_link,0.006264522511652605,-0.012233518565536231,0.02939860694810692,-0.9994733158667368,1.0,0.0,0.0,0.0,1.0,0.0,0.0,0.0,1.0,0.0014476205687969923,0.0013826051726937294,-0.00027153367409482615,1.2184696791468346e-07,0.0,0.0,0.0,1.2184696791468346e-07,0.0,0.0,0.0,1.2184696791468346e-07,-0.26540157198905945,-0.19193696975707888,9.826343536376953,8.999999999999999e-08,0.0,0.0,0.0,8.999999999999999e-08,0.0,0.0,0.0,8.999999999999999e-08
31754000000,5946,31754000000,base_link,0.0062824415077148135,-0.012229012804012613,0.029398606948106976,-0.9994732315730398,1.0,0.0,0.0,0.0,1.0,0.0,0.0,0.0,1.0,-0.0016593813197687268,-0.0006303861737251283,-0.0004944548709318041,1.2184696791468346e-07,0.0,0.0,0.0,1.2184696791468346e-07,0.0,0.0,0.0,1.2184696791468346e-07,-0.2367623746395111,-0.14886221289634585,9.789558410644531,8.999999999999999e-08,0.0,0.0,0.0,8.999999999999999e-08,0.0,0.0,0.0,8.999999999999999e-08
31759000000,5947,31758000000,base_link,0.0062821178330891405,-0.012225406285014647,0.029406277674535963,-0.9994730629856458,1.0,0.0,0.0,0.0,1.0,0.0,0.0,0.0,1.0,-0.0018160272156819701,-0.001019837334752083,-0.0018656458705663679,1.2184696791468346e-07,0.0,0.0,0.0,1.2184696791468346e-07,0.0,0.0,0.0,1.2184696791468346e-07,-0.23250064253807068,-0.19351144134998202,9.807746887207031,8.999999999999999e-08,0.0,0.0,0.0,8.999999999999999e-08,0.0,0.0,0.0,8.999999999999999e-08
31763000000,5948,31763000000,base_link,0.006281640388320853,-0.01221454095917744,0.029411419590054277,-0.9994730629856459,1.0,0.0,0.0,0.0,1.0,0.0,0.0,0.0,1.0,-0.00044494366738945246,-0.0032020760700106625,-0.0038585297297686334,1.2184696791468346e-07,0.0,0.0,0.0,1.2184696791468346e-07,0.0,0.0,0.0,1.2184696791468346e-07,-0.24658551812171936,-0.11600825935602067,9.809361457824707,8.999999999999999e-08,0.0,0.0,0.0,8.999999999999999e-08,0.0,0.0,0.0,8.999999999999999e-08
31768000000,5949,31768000000,base_link,0.006284960111185594,-0.012206446788629822,0.029416140037087535,-0.9994729786919487,1.0,0.0,0.0,0.0,1.0,0.0,0.0,0.0,1.0,-0.00041513785254210234,-0.004849995486438274,-0.0025671992916613813,1.2184696791468346e-07,0.0,0.0,0.0,1.2184696791468346e-07,0.0,0.0,0.0,1.2184696791468346e-07,-0.20661984384059906,-0.1443125754594791,9.771056175231934,8.999999999999999e-08,0.0,0.0,0.0,8.999999999999999e-08,0.0,0.0,0.0,8.999999999999999e-08
31773000000,5950,31773000000,base_link,0.006292216613119056,-0.012204403325021552,0.02941517065957172,-0.9994730208387972,1.0,0.0,0.0,0.0,1.0,0.0,0.0,0.0,1.0,-0.000783786759711802,-0.002810050500556827,-0.001997009618207812,1.2184696791468346e-07,0.0,0.0,0.0,1.2184696791468346e-07,0.0,0.0,0.0,1.2184696791468346e-07,-0.20985853672027588,-0.11878022551536441,9.784034729003906,8.999999999999999e-08,0.0,0.0,0.0,8.999999999999999e-08,0.0,0.0,0.0,8.999999999999999e-08
31779000000,5951,31779000000,base_link,0.006293942329002224,-0.012209081295934008,0.029410576653084053,-0.9994730629856459,1.0,0.0,0.0,0.0,1.0,0.0,0.0,0.0,1.0,1.2583448551595211e-05,0.0009116283617913724,0.001178818056359887,1.2184696791468346e-07,0.0,0.0,0.0,1.2184696791468346e-07,0.0,0.0,0.0,1.2184696791468346e-07,-0.23375140130519867,-0.17567113041877627,9.831076622009277,8.999999999999999e-08,0.0,0.0,0.0,8.999999999999999e-08,0.0,0.0,0.0,8.999999999999999e-08
31784000000,5952,31783000000,base_link,0.00629268055772493,-0.01222125778388661,0.029413990547813462,-0.9994727679577062,1.0,0.0,0.0,0.0,1.0,0.0,0.0,0.0,1.0,0.0011741075431928039,0.003548702225089073,0.00025510048726573543,1.2184696791468346e-07,0.0,0.0,0.0,1.2184696791468346e-07,0.0,0.0,0.0,1.2184696791468346e-07,-0.21758759021759033,-0.13165377080440402,9.805276870727539,8.999999999999999e-08,0.0,0.0,0.0,8.999999999999999e-08,0.0,0.0,0.0,8.999999999999999e-08
31788000000,5953,31788000000,base_link,0.006292417469193991,-0.012226362491640238,0.029425285903214304,-0.9994724307829181,1.0,0.0,0.0,0.0,1.0,0.0,0.0,0.0,1.0,0.001446087728254497,0.003410827368497848,-0.00335916317999363,1.2184696791468346e-07,0.0,0.0,0.0,1.2184696791468346e-07,0.0,0.0,0.0,1.2184696791468346e-07,-0.2407037615776062,-0.19421683251857638,9.803115844726562,8.999999999999999e-08,0.0,0.0,0.0,8.999999999999999e-08,0.0,0.0,0.0,8.999999999999999e-08
31793000000,5954,31793000000,base_link,0.006288076343797368,-0.012226398053043668,0.029419806812907956,-0.9994725993703121,1.0,0.0,0.0,0.0,1.0,0.0,0.0,0.0,1.0,0.0031172987073659897,0.0009594871662557124,-0.0012467696797102692,1.2184696791468346e-07,0.0,0.0,0.0,1.2184696791468346e-07,0.0,0.0,0.0,1.2184696791468346e-07,-0.1800607144832611,-0.14979836344718814,9.80195426940918,8.999999999999999e-08,0.0,0.0,0.0,8.999999999999999e-08,0.0,0.0,0.0,8.999999999999999e-08
31798000000,5955,31798000000,base_link,0.006280657839914943,-0.012226702959150864,0.029412136086478913,-0.9994728522514033,1.0,0.0,0.0,0.0,1.0,0.0,0.0,0.0,1.0,0.003151504322886467,-0.00031245080754160865,0.001487442757934332,1.2184696791468346e-07,0.0,0.0,0.0,1.2184696791468346e-07,0.0,0.0,0.0,1.2184696791468346e-07,-0.2548558712005615,-0.1788000613450992,9.80588436126709,8.999999999999999e-08,0.0,0.0,0.0,8.999999999999999e-08,0.0,0.0,0.0,8.999999999999999e-08
31802000000,5956,31802000000,base_link,0.006282954184614278,-0.012220105001725384,0.029414074841510485,-0.9994728522514031,1.0,0.0,0.0,0.0,1.0,0.0,0.0,0.0,1.0,0.0012829084880650043,-0.0018898057751357553,0.0009742904221639039,1.2184696791468346e-07,0.0,0.0,0.0,1.2184696791468346e-07,0.0,0.0,0.0,1.2184696791468346e-07,-0.2523699104785919,-0.14555612206458926,9.796125411987305,8.999999999999999e-08,0.0,0.0,0.0,8.999999999999999e-08,0.0,0.0,0.0,8.999999999999999e-08
31809000000,5957,31809000000,base_link,0.00628162030271336,-0.012223299930405865,0.029422462064364163,-0.9994726415171606,1.0,0.0,0.0,0.0,1.0,0.0,0.0,0.0,1.0,-0.0009906733175739646,-0.001339537557214499,-0.002990130567923188,1.2184696791468346e-07,0.0,0.0,0.0,1.2184696791468346e-07,0.0,0.0,0.0,1.2184696791468346e-07,-0.22177347540855408,-0.14429065585136294,9.78989028930664,8.999999999999999e-08,0.0,0.0,0.0,8.999999999999999e-08,0.0,0.0,0.0,8.999999999999999e-08
31813000000,5958,31813000000,base_link,0.006289341078524949,-0.012214638753036876,0.029422209183273096,-0.9994727258108577,1.0,0.0,0.0,0.0,1.0,0.0,0.0,0.0,1.0,-0.0014095589285716414,-0.0018811060581356291,-0.003075892804190516,1.2184696791468346e-07,0.0,0.0,0.0,1.2184696791468346e-07,0.0,0.0,0.0,1.2184696791468346e-07,-0.23445965349674225,-0.17372314631938815,9.77026653289795,8.999999999999999e-08,0.0,0.0,0.0,8.999999999999999e-08,0.0,0.0,0.0,8.999999999999999e-08
31818000000,5959,31818000000,base_link,0.006273904795257834,-0.012220357553544196,0.029426761042912253,-0.9994725572234636,1.0,0.0,0.0,0.0,1.0,0.0,0.0,0.0,1.0,0.002781876362860203,0.000579840503633022,-0.0025724535807967186,1.2184696791468346e-07,0.0,0.0,0.0,1.2184696791468346e-07,0.0,0.0,0.0,1.2184696791468346e-07,-0.16098187863826752,-0.17316293716430545,9.810848236083984,8.999999999999999e-08,0.0,0.0,0.0,8.999999999999999e-08,0.0,0.0,0.0,8.999999999999999e-08
31823000000,5960,31823000000,base_link,0.006273215299157976,-0.012221339443405598,0.029431650077339555,-0.9994723886360696,1.0,0.0,0.0,0.0,1.0,0.0,0.0,0.0,1.0,0.003732469864189625,0.0002524927258491515,-0.001102490583434701,1.2184696791468346e-07,0.0,0.0,0.0,1.2184696791468346e-07,0.0,0.0,0.0,1.2184696791468346e-07,-0.22871063649654388,-0.17477260529994845,9.798015594482422,8.999999999999999e-08,0.0,0.0,0.0,8.999999999999999e-08,0.0,0.0,0.0,8.999999999999999e-08
31828000000,5961,31827000000,base_link,0.006280704267302756,-0.01222445962728442,0.02942600239963905,-0.9994724729297666,1.0,0.0,0.0,0.0,1.0,0.0,0.0,0.0,1.0,0.0004035588353872299,0.00027812272310256963,0.0002433696645312011,1.2184696791468346e-07,0.0,0.0,0.0,1.2184696791468346e-07,0.0,0.0,0.0,1.2184696791468346e-07,-0.22470170259475708,-0.15492098033428073,9.81039810180664,8.999999999999999e-08,0.0,0.0,0.0,8.999999999999999e-08,0.0,0.0,0.0,8.999999999999999e-08
31832000000,5962,31832000000,base_link,0.006283152077238927,-0.012226470163667293,0.02942528590321436,-0.999472515076615,1.0,0.0,0.0,0.0,1.0,0.0,0.0,0.0,1.0,-0.001096336985938251,0.000556490384042263,3.678177017718547e-05,1.2184696791468346e-07,0.0,0.0,0.0,1.2184696791468346e-07,0.0,0.0,0.0,1.2184696791468346e-07,-0.23044903576374054,-0.18075139820575595,9.792878150939941,8.999999999999999e-08,0.0,0.0,0.0,8.999999999999999e-08,0.0,0.0,0.0,8.999999999999999e-08
31839000000,5963,31838000000,base_link,0.00628586890260661,-0.012237393112148947,0.029407794961082367,-0.9994728943982517,1.0,0.0,0.0,0.0,1.0,0.0,0.0,0.0,1.0,0.00013888080138713121,0.0015278533101081852,0.0030704678501933813,1.2184696791468346e-07,0.0,0.0,0.0,1.2184696791468346e-07,0.0,0.0,0.0,1.2184696791468346e-07,-0.2233140915632248,-0.16466203331947207,9.79670524597168,8.999999999999999e-08,0.0,0.0,0.0,8.999999999999999e-08,0.0,0.0,0.0,8.999999999999999e-08
31843000000,5964,31843000000,base_link,0.006284985465149152,-0.012239110266953512,0.029405181856474727,-0.9994728943982517,1.0,0.0,0.0,0.0,1.0,0.0,0.0,0.0,1.0,-0.0002485918812453747,0.0019270051270723347,0.0028137660119682546,1.2184696791468346e-07,0.0,0.0,0.0,1.2184696791468346e-07,0.0,0.0,0.0,1.2184696791468346e-07,-0.22957651317119598,-0.19985657930374026,9.811964988708496,8.999999999999999e-08,0.0,0.0,0.0,8.999999999999999e-08,0.0,0.0,0.0,8.999999999999999e-08
31848000000,5965,31848000000,base_link,0.006293490567469748,-0.012238636773452273,0.029402526605018464,-0.9994729365451002,1.0,0.0,0.0,0.0,1.0,0.0,0.0,0.0,1.0,-0.002539109904319048,-0.00024166796356439585,0.0004837121232412756,1.2184696791468346e-07,0.0,0.0,0.0,1.2184696791468346e-07,0.0,0.0,0.0,1.2184696791468346e-07,-0.18076106905937195,-0.12212315201759218,9.83318042755127,8.999999999999999e-08,0.0,0.0,0.0,8.999999999999999e-08,0.0,0.0,0.0,8.999999999999999e-08
31853000000,5966,31853000000,base_link,0.006304272587426695,-0.012236750372709156,0.02940446536004998,-0.9994728522514031,1.0,0.0,0.0,0.0,1.0,0.0,0.0,0.0,1.0,-0.0027383286505937576,-0.0005790800787508488,1.9665283616632294e-05,1.2184696791468346e-07,0.0,0.0,0.0,1.2184696791468346e-07,0.0,0.0,0.0,1.2184696791468346e-07,-0.23216326534748077,-0.19947192072868228,9.786145210266113,8.999999999999999e-08,0.0,0.0,0.0,8.999999999999999e-08,0.0,0.0,0.0,8.999999999999999e-08
31857000000,5967,31857000000,base_link,0.006298806997282692,-0.012238638749085796,0.029397468983197117,-0.9994731051324943,1.0,0.0,0.0,0.0,1.0,0.0,0.0,0.0,1.0,2.46675917878747e-05,-0.0018109644297510383,0.0017600578721612694,1.2184696791468346e-07,0.0,0.0,0.0,1.2184696791468346e-07,0.0,0.0,0.0,1.2184696791468346e-07,-0.24403612315654755,-0.1692100465297687,9.786401748657227,8.999999999999999e-08,0.0,0.0,0.0,8.999999999999999e-08,0.0,0.0,0.0,8.999999999999999e-08
31864000000,5968,31864000000,base_link,0.00629079975461013,-0.012238814580469428,0.029393338592043072,-0.9994731894261913,1.0,0.0,0.0,0.0,1.0,0.0,0.0,0.0,1.0,0.0027696588076651096,-0.00047292280942201614,-0.00016119293286465103,1.2184696791468346e-07,0.0,0.0,0.0,1.2184696791468346e-07,0.0,0.0,0.0,1.2184696791468346e-07,-0.2629789113998413,-0.21277613937854647,9.828486442565918,8.999999999999999e-08,0.0,0.0,0.0,8.999999999999999e-08,0.0,0.0,0.0,8.999999999999999e-08
31868000000,5969,31868000000,base_link,0.006288920268584348,-0.012236090840384411,0.029403285248291722,-0.9994729365451003,1.0,0.0,0.0,0.0,1.0,0.0,0.0,0.0,1.0,0.0020057419314980507,-0.0016678520478308205,-0.0027257727924734354,1.2184696791468346e-07,0.0,0.0,0.0,1.2184696791468346e-07,0.0,0.0,0.0,1.2184696791468346e-07,-0.21776333451271057,-0.1759241372346866,9.82774543762207,8.999999999999999e-08,0.0,0.0,0.0,8.999999999999999e-08,0.0,0.0,0.0,8.999999999999999e-08
31873000000,5970,31873000000,base_link,0.0062949755853352485,-0.012239589687355324,0.029402231577078886,-0.9994728943982516,1.0,0.0,0.0,0.0,1.0,0.0,0.0,0.0,1.0,-0.000808155513368547,-0.00038735941052436834,-0.000570119300391525,1.2184696791468346e-07,0.0,0.0,0.0,1.2184696791468346e-07,0.0,0.0,0.0,1.2184696791468346e-07,-0.23346875607967377,-0.11716096848249316,9.794472694396973,8.999999999999999e-08,0.0,0.0,0.0,8.999999999999999e-08,0.0,0.0,0.0,8.999999999999999e-08
31878000000,5971,31878000000,base_link,0.006302729288372238,-0.01224560088162419,0.029395614521862734,-0.9994730208387972,1.0,0.0,0.0,0.0,1.0,0.0,0.0,0.0,1.0,-0.001898232032544911,0.0008537103421986104,0.0008799494826234876,1.2184696791468346e-07,0.0,0.0,0.0,1.2184696791468346e-07,0.0,0.0,0.0,1.2184696791468346e-07,-0.20729267597198486,-0.19628682732581973,9.79019832611084,8.999999999999999e-08,0.0,0.0,0.0,8.999999999999999e-08,0.0,0.0,0.0,8.999999999999999e-08
31883000000,5972,31883000000,base_link,0.006300228136330919,-0.012245808981688712,0.029384277019613214,-0.999473400160434,1.0,0.0,0.0,0.0,1.0,0.0,0.0,0.0,1.0,-0.0007085353136062622,-0.0004202066920697686,0.0026358452159911394,1.2184696791468346e-07,0.0,0.0,0.0,1.2184696791468346e-07,0.0,0.0,0.0,1.2184696791468346e-07,-0.2236585021018982,-0.20818045735359073,9.83564281463623,8.999999999999999e-08,0.0,0.0,0.0,8.999999999999999e-08,0.0,0.0,0.0,8.999999999999999e-08
31887000000,5973,31887000000,base_link,0.006299743776845298,-0.012256857712171393,0.029383434082643045,-0.9994732315730399,1.0,0.0,0.0,0.0,1.0,0.0,0.0,0.0,1.0,0.00035575043875724077,0.0015992927365005018,0.00219675712287426,1.2184696791468346e-07,0.0,0.0,0.0,1.2184696791468346e-07,0.0,0.0,0.0,1.2184696791468346e-07,-0.2187017947435379,-0.15843051671981692,9.8189115524292,8.999999999999999e-08,0.0,0.0,0.0,8.999999999999999e-08,0.0,0.0,0.0,8.999999999999999e-08
31894000000,5974,31894000000,base_link,0.006288959451982573,-0.012261446450303018,0.029398817682349476,-0.9994727679577062,1.0,0.0,0.0,0.0,1.0,0.0,0.0,0.0,1.0,0.003165740519762039,0.0016979631036520002,-0.0022955131717026234,1.2184696791468346e-07,0.0,0.0,0.0,1.2184696791468346e-07,0.0,0.0,0.0,1.2184696791468346e-07,-0.17296350002288818,-0.18578630685806155,9.837939262390137,8.999999999999999e-08,0.0,0.0,0.0,8.999999999999999e-08,0.0,0.0,0.0,8.999999999999999e-08
31898000000,5975,31898000000,base_link,0.006281885366877822,-0.012263973944124654,0.02940880648544658,-0.9994724729297666,1.0,0.0,0.0,0.0,1.0,0.0,0.0,0.0,1.0,0.003384167328476906,0.0004661888815462584,-0.004272021818906069,1.2184696791468346e-07,0.0,0.0,0.0,1.2184696791468346e-07,0.0,0.0,0.0,1.2184696791468346e-07,-0.253841370344162,-0.1234191283583629,9.832261085510254,8.999999999999999e-08,0.0,0.0,0.0,8.999999999999999e-08,0.0,0.0,0.0,8.999999999999999e-08
31903000000,5976,31903000000,base_link,0.006290005879205757,-0.01227817940770635,0.02941070309362953,-0.9994722621955241,1.0,0.0,0.0,0.0,1.0,0.0,0.0,0.0,1.0,0.0007074811728671193,0.0016422849148511884,-0.002247773576527834,1.2184696791468346e-07,0.0,0.0,0.0,1.2184696791468346e-07,0.0,0.0,0.0,1.2184696791468346e-07,-0.21514150500297546,-0.1930699497461307,9.81387996673584,8.999999999999999e-08,0.0,0.0,0.0,8.999999999999999e-08,0.0,0.0,0.0,8.999999999999999e-08
31908000000,5977,31908000000,base_link,0.006284227151148209,-0.01227987384272539,0.029414116988358996,-0.9994721357549785,1.0,0.0,0.0,0.0,1.0,0.0,0.0,0.0,1.0,0.0005551283247768879,0.0013288031332194805,-0.000868183793500066,1.2184696791468346e-07,0.0,0.0,0.0,1.2184696791468346e-07,0.0,0.0,0.0,1.2184696791468346e-07,-0.24133937060832977,-0.19017447531223178,9.764288902282715,8.999999999999999e-08,0.0,0.0,0.0,8.999999999999999e-08,0.0,0.0,0.0,8.999999999999999e-08
31912000000,5978,31912000000,base_link,0.0062839130254179,-0.012280060210821148,0.029417235855148827,-0.9994720514612815,1.0,0.0,0.0,0.0,1.0,0.0,0.0,0.0,1.0,0.0007322491146624088,-0.0001753354445099831,-0.00027386719011701643,1.2184696791468346e-07,0.0,0.0,0.0,1.2184696791468346e-07,0.0,0.0,0.0,1.2184696791468346e-07,-0.2154867947101593,-0.12049845606088519,9.784577369689941,8.999999999999999e-08,0.0,0.0,0.0,8.999999999999999e-08,0.0,0.0,0.0,8.999999999999999e-08
31917000000,5979,31917000000,base_link,0.006281423397905473,-0.012279452044968026,0.02941782591102793,-0.9994720514612814,1.0,0.0,0.0,0.0,1.0,0.0,0.0,0.0,1.0,0.001002554316073656,-0.0017504219431430101,0.0008630831725895407,1.2184696791468346e-07,0.0,0.0,0.0,1.2184696791468346e-07,0.0,0.0,0.0,1.2184696791468346e-07,-0.1905096024274826,-0.1269789636135089,9.865043640136719,8.999999999999999e-08,0.0,0.0,0.0,8.999999999999999e-08,0.0,0.0,0.0,8.999999999999999e-08
31924000000,5980,31923000000,base_link,0.006265853759375491,-0.01227085705132209,0.02940998659720495,-0.9994725572234636,1.0,0.0,0.0,0.0,1.0,0.0,0.0,0.0,1.0,0.0039363340474665165,-0.0033989180810749526,0.0026481458917260174,1.2184696791468346e-07,0.0,0.0,0.0,1.2184696791468346e-07,0.0,0.0,0.0,1.2184696791468346e-07,-0.20046856999397278,-0.13543625175952792,9.843674659729004,8.999999999999999e-08,0.0,0.0,0.0,8.999999999999999e-08,0.0,0.0,0.0,8.999999999999999e-08
31928000000,5981,31928000000,base_link,0.0062694131924411365,-0.012262271606571519,0.029416182183936046,-0.9994724307829181,1.0,0.0,0.0,0.0,1.0,0.0,0.0,0.0,1.0,0.0015387278981506824,-0.003946729935705662,0.0002772348525468265,1.2184696791468346e-07,0.0,0.0,0.0,1.2184696791468346e-07,0.0,0.0,0.0,1.2184696791468346e-07,-0.19309526681900024,-0.1942099779844272,9.76983642578125,8.999999999999999e-08,0.0,0.0,0.0,8.999999999999999e-08,0.0,0.0,0.0,8.999999999999999e-08
31933000000,5982,31933000000,base_link,0.006266325277243206,-0.012265700647824585,0.029415549981208378,-0.9994723886360696,1.0,0.0,0.0,0.0,1.0,0.0,0.0,0.0,1.0,0.0011541248532012105,-0.0020442288368940353,8.618106949143136e-05,1.2184696791468346e-07,0.0,0.0,0.0,1.2184696791468346e-07,0.0,0.0,0.0,1.2184696791468346e-07,-0.20127417147159576,-0.16068106889724612,9.792717933654785,8.999999999999999e-08,0.0,0.0,0.0,8.999999999999999e-08,0.0,0.0,0.0,8.999999999999999e-08
31938000000,5983,31938000000,base_link,0.006265310460156405,-0.012263239666998252,0.029420017547150568,-0.9994723043423726,1.0,0.0,0.0,0.0,1.0,0.0,0.0,0.0,1.0,0.0007657005917280912,-0.0012935837730765343,0.0001149871677625926,1.2184696791468346e-07,0.0,0.0,0.0,1.2184696791468346e-07,0.0,0.0,0.0,1.2184696791468346e-07,-0.22499780356884003,-0.17595288157462952,9.86276912689209,8.999999999999999e-08,0.0,0.0,0.0,8.999999999999999e-08,0.0,0.0,0.0,8.999999999999999e-08
31943000000,5984,31943000000,base_link,0.006278610754311878,-0.012264439205819544,0.029417193708300315,-0.9994722621955241,1.0,0.0,0.0,0.0,1.0,0.0,0.0,0.0,1.0,-0.0029717879369854927,-0.0005593984387814996,0.001477544428780675,1.2184696791468346e-07,0.0,0.0,0.0,1.2184696791468346e-07,0.0,0.0,0.0,1.2184696791468346e-07,-0.23158632218837738,-0.19973137974738955,9.801487922668457,8.999999999999999e-08,0.0,0.0,0.0,8.999999999999999e-08,0.0,0.0,0.0,8.999999999999999e-08
31947000000,5985,31947000000,base_link,0.006280026625004042,-0.012272620962786722,0.029419427491271355,-0.9994721357549785,1.0,0.0,0.0,0.0,1.0,0.0,0.0,0.0,1.0,-0.002345314249396324,0.0013970574364066126,0.0013643205165863035,1.2184696791468346e-07,0.0,0.0,0.0,1.2184696791468346e-07,0.0,0.0,0.0,1.2184696791468346e-07,-0.20812496542930603,-0.1324375569820392,9.782146453857422,8.999999999999999e-08,0.0,0.0,0.0,8.999999999999999e-08,0.0,0.0,0.0,8.999999999999999e-08
31954000000,5986,31954000000,base_link,0.00627656498579783,-0.012279833671510402,0.029420017547150512,-0.9994720514612815,1.0,0.0,0.0,0.0,1.0,0.0,0.0,0.0,1.0,0.001618185080587864,0.0014357366599142556,0.003078785492107272,1.2184696791468346e-07,0.0,0.0,0.0,1.2184696791468346e-07,0.0,0.0,0.0,1.2184696791468346e-07,-0.2568152844905853,-0.1575015038251865,9.811949729919434,8.999999999999999e-08,0.0,0.0,0.0,8.999999999999999e-08,0.0,0.0,0.0,8.999999999999999e-08
31959000000,5987,31958000000,base_link,0.006275487936255025,-0.012274852111579767,0.02941217823332748,-0.9994723886360696,1.0,0.0,0.0,0.0,1.0,0.0,0.0,0.0,1.0,0.0014318812172859907,-0.0008568526245653625,0.003201495623216033,1.2184696791468346e-07,0.0,0.0,0.0,1.2184696791468346e-07,0.0,0.0,0.0,1.2184696791468346e-07,-0.1909216046333313,-0.17791377007961154,9.821968078613281,8.999999999999999e-08,0.0,0.0,0.0,8.999999999999999e-08,0.0,0.0,0.0,8.999999999999999e-08
31963000000,5988,31963000000,base_link,0.006268613060863939,-0.012284151747849244,0.0294152549532688,-0.999472177901827,1.0,0.0,0.0,0.0,1.0,0.0,0.0,0.0,1.0,0.0022731758654117584,0.0003244969993829728,0.0007829220849089324,1.2184696791468346e-07,0.0,0.0,0.0,1.2184696791468346e-07,0.0,0.0,0.0,1.2184696791468346e-07,-0.13956886529922485,-0.18274140357971072,9.842662811279297,8.999999999999999e-08,0.0,0.0,0.0,8.999999999999999e-08,0.0,0.0,0.0,8.999999999999999e-08
31968000000,5989,31968000000,base_link,0.006271631499616278,-0.01228570229089329,0.029410323771992986,-0.9994723043423726,1.0,0.0,0.0,0.0,1.0,0.0,0.0,0.0,1.0,0.0019922771025449038,0.0012736618518829348,0.0017390190623700617,1.2184696791468346e-07,0.0,0.0,0.0,1.2184696791468346e-07,0.0,0.0,0.0,1.2184696791468346e-07,-0.2381739616394043,-0.18488940596580386,9.761239051818848,8.999999999999999e-08,0.0,0.0,0.0,8.999999999999999e-08,0.0,0.0,0.0,8.999999999999999e-08
31972000000,5990,31972000000,base_link,0.006278895574811581,-0.012285150101323347,0.029409522981871272,-0.9994722621955241,1.0,0.0,0.0,0.0,1.0,0.0,0.0,0.0,1.0,4.251615609973669e-05,0.0006368644535541538,0.0023448667488992214,1.2184696791468346e-07,0.0,0.0,0.0,1.2184696791468346e-07,0.0,0.0,0.0,1.2184696791468346e-07,-0.23907393217086792,-0.19004862010478854,9.818426132202148,8.999999999999999e-08,0.0,0.0,0.0,8.999999999999999e-08,0.0,0.0,0.0,8.999999999999999e-08
31977000000,5991,31977000000,base_link,0.006291067123680372,-0.012287823462753502,0.029410450212538575,-0.99947209360813,1.0,0.0,0.0,0.0,1.0,0.0,0.0,0.0,1.0,-0.003961730748414993,0.0012667193077504637,0.0026149253826588392,1.2184696791468346e-07,0.0,0.0,0.0,1.2184696791468346e-07,0.0,0.0,0.0,1.2184696791468346e-07,-0.16050656139850616,-0.14868614077567935,9.818760871887207,8.999999999999999e-08,0.0,0.0,0.0,8.999999999999999e-08,0.0,0.0,0.0,8.999999999999999e-08
31983000000,5992,31983000000,base_link,0.006316222206796296,-0.01229865915408785,0.029412346820721524,-0.9994717142864934,1.0,0.0,0.0,0.0,1.0,0.0,0.0,0.0,1.0,-0.0034211205784231424,0.0026608994230628014,0.0005951533676125106,1.2184696791468346e-07,0.0,0.0,0.0,1.2184696791468346e-07,0.0,0.0,0.0,1.2184696791468346e-07,-0.22647064924240112,-0.15765079855918765,9.814318656921387,8.999999999999999e-08,0.0,0.0,0.0,8.999999999999999e-08,0.0,0.0,0.0,8.999999999999999e-08
31988000000,5993,31988000000,base_link,0.006314108608197926,-0.012303944303036664,0.02941993325345349,-0.9994714614054023,1.0,0.0,0.0,0.0,1.0,0.0,0.0,0.0,1.0,0.0005393099854700267,0.002803496085107326,-0.0019393216352909808,1.2184696791468346e-07,0.0,0.0,0.0,1.2184696791468346e-07,0.0,0.0,0.0,1.2184696791468346e-07,-0.15868821740150452,-0.1780361682176578,9.828886032104492,8.999999999999999e-08,0.0,0.0,0.0,8.999999999999999e-08,0.0,0.0,0.0,8.999999999999999e-08
31993000000,5994,31993000000,base_link,0.0063190299113060795,-0.01230623801355797,0.02943308307018888,-0.9994710399369172,1.0,0.0,0.0,0.0,1.0,0.0,0.0,0.0,1.0,0.001210995251312852,0.00023465696722269015,-0.0036433690693229437,1.2184696791468346e-07,0.0,0.0,0.0,1.2184696791468346e-07,0.0,0.0,0.0,1.2184696791468346e-07,-0.22299669682979584,-0.15306273102760196,9.816136360168457,8.999999999999999e-08,0.0,0.0,0.0,8.999999999999999e-08,0.0,0.0,0.0,8.999999999999999e-08
31998000000,5995,31998000000,base_link,0.00632554719702933,-0.01228924460180173,0.029439657978556577,-0.9994710399369172,1.0,0.0,0.0,0.0,1.0,0.0,0.0,0.0,1.0,0.001188674010336399,-0.002920576836913824,-0.0012191662099212404,1.2184696791468346e-07,0.0,0.0,0.0,1.2184696791468346e-07,0.0,0.0,0.0,1.2184696791468346e-07,-0.20554371178150177,-0.20032331347465396,9.733258247375488,8.999999999999999e-08,0.0,0.0,0.0,8.999999999999999e-08,0.0,0.0,0.0,8.999999999999999e-08
32003000000,5996,32002000000,base_link,0.0063328547361621605,-0.012297019048990719,0.029444336278741323,-0.9994707449089777,1.0,0.0,0.0,0.0,1.0,0.0,0.0,0.0,1.0,0.0003634720342233777,-0.0004525389522314072,-0.0003918114816769957,1.2184696791468346e-07,0.0,0.0,0.0,1.2184696791468346e-07,0.0,0.0,0.0,1.2184696791468346e-07,-0.2208976000547409,-0.18883538246154666,9.805289268493652,8.999999999999999e-08,0.0,0.0,0.0,8.999999999999999e-08,0.0,0.0,0.0,8.999999999999999e-08
32007000000,5997,32007000000,base_link,0.006332978542529662,-0.012298490237421552,0.029456811745900535,-0.9994703234404925,1.0,0.0,0.0,0.0,1.0,0.0,0.0,0.0,1.0,0.0007149011944420636,0.0013912878930568693,-0.002322971820831299,1.2184696791468346e-07,0.0,0.0,0.0,1.2184696791468346e-07,0.0,0.0,0.0,1.2184696791468346e-07,-0.20540739595890045,-0.24432578682899356,9.792753219604492,8.999999999999999e-08,0.0,0.0,0.0,8.999999999999999e-08,0.0,0.0,0.0,8.999999999999999e-08
32014000000,5998,32013000000,base_link,0.006344625889970098,-0.012298985133619302,0.02945853976668944,-0.9994701969999469,1.0,0.0,0.0,0.0,1.0,0.0,0.0,0.0,1.0,-0.0009982665069401264,0.002218644134700298,-0.0023371044080704455,1.2184696791468346e-07,0.0,0.0,0.0,1.2184696791468346e-07,0.0,0.0,0.0,1.2184696791468346e-07,-0.20574620366096497,-0.18664611876010775,9.781797409057617,8.999999999999999e-08,0.0,0.0,0.0,8.999999999999999e-08,0.0,0.0,0.0,8.999999999999999e-08
32018000000,5999,32018000000,base_link,0.006343111896146247,-0.01231069603060476,0.02947181602397042,-0.9994697333846134,1.0,0.0,0.0,0.0,1.0,0.0,0.0,0.0,1.0,0.0016240909462794662,0.0036528706550598145,-0.0014571195933967833,1.2184696791468346e-07,0.0,0.0,0.0,1.2184696791468346e-07,0.0,0.0,0.0,1.2184696791468346e-07,-0.21929338574409485,-0.19005297124385714,9.81087589263916,8.999999999999999e-08,0.0,0.0,0.0,8.999999999999999e-08,0.0,0.0,0.0,8.999999999999999e-08
32023000000,6000,32023000000,base_link,0.0063418593444920625,-0.012320551807711227,0.02946680054899753,-0.9994697755314619,1.0,0.0,0.0,0.0,1.0,0.0,0.0,0.0,1.0,0.002788786543533206,0.003812062554061413,0.0009326498839072879,1.2184696791468346e-07,0.0,0.0,0.0,1.2184696791468346e-07,0.0,0.0,0.0,1.2184696791468346e-07,-0.19175326824188232,-0.1706397682428348,9.82870101928711,8.999999999999999e-08,0.0,0.0,0.0,8.999999999999999e-08,0.0,0.0,0.0,8.999999999999999e-08
32028000000,6001,32028000000,base_link,0.006339845515386652,-0.012318539295694833,0.02946507252820868,-0.9994698176783104,1.0,0.0,0.0,0.0,1.0,0.0,0.0,0.0,1.0,0.003253248753026128,0.002205603756010533,0.002053309697657823,1.2184696791468346e-07,0.0,0.0,0.0,1.2184696791468346e-07,0.0,0.0,0.0,1.2184696791468346e-07,-0.1998300701379776,-0.1872447133064258,9.769449234008789,8.999999999999999e-08,0.0,0.0,0.0,8.999999999999999e-08,0.0,0.0,0.0,8.999999999999999e-08
32032000000,6002,32032000000,base_link,0.00633696372461972,-0.012307928826582213,0.029468107101301433,-0.9994699019720075,1.0,0.0,0.0,0.0,1.0,0.0,0.0,0.0,1.0,0.0026055583730340004,-0.002075327793136239,0.0010759739670902493,1.2184696791468346e-07,0.0,0.0,0.0,1.2184696791468346e-07,0.0,0.0,0.0,1.2184696791468346e-07,-0.21020908653736115,-0.14063355326652408,9.836353302001953,8.999999999999999e-08,0.0,0.0,0.0,8.999999999999999e-08,0.0,0.0,0.0,8.999999999999999e-08
32037000000,6003,32037000000,base_link,0.006342026285524836,-0.01230119356262682,0.029472490373546545,-0.9994698176783104,1.0,0.0,0.0,0.0,1.0,0.0,0.0,0.0,1.0,0.0017013646429404616,-0.0028358770068734884,-0.0010552452877163883,1.2184696791468346e-07,0.0,0.0,0.0,1.2184696791468346e-07,0.0,0.0,0.0,1.2184696791468346e-07,-0.2641633450984955,-0.19220557808875918,9.836435317993164,8.999999999999999e-08,0.0,0.0,0.0,8.999999999999999e-08,0.0,0.0,0.0,8.999999999999999e-08
32043000000,6004,32043000000,base_link,0.006351570900351283,-0.012296569592364021,0.02949069781210334,-0.9994693119161283,1.0,0.0,0.0,0.0,1.0,0.0,0.0,0.0,1.0,-3.8058613426983356e-05,-0.0007630209438502793,-0.003447984578087926,1.2184696791468346e-07,0.0,0.0,0.0,1.2184696791468346e-07,0.0,0.0,0.0,1.2184696791468346e-07,-0.20601943135261536,-0.17797793447971225,9.810690879821777,8.999999999999999e-08,0.0,0.0,0.0,8.999999999999999e-08,0.0,0.0,0.0,8.999999999999999e-08
32048000000,6005,32048000000,base_link,0.00636505789187477,-0.012299892607951302,0.02949141430852803,-0.9994691011818857,1.0,0.0,0.0,0.0,1.0,0.0,0.0,0.0,1.0,-0.003653513500466943,0.0013269744813442228,-0.0014692666009068491,1.2184696791468346e-07,0.0,0.0,0.0,1.2184696791468346e-07,0.0,0.0,0.0,1.2184696791468346e-07,-0.21007217466831207,-0.21557778120040774,9.77221965789795,8.999999999999999e-08,0.0,0.0,0.0,8.999999999999999e-08,0.0,0.0,0.0,8.999999999999999e-08
32053000000,6006,32053000000,base_link,0.0063793446857032,-0.012295087537948805,0.029494659615863283,-0.9994689747413401,1.0,0.0,0.0,0.0,1.0,0.0,0.0,0.0,1.0,-0.003404993796721101,-8.42912122607234e-05,-0.0023001432418823242,1.2184696791468346e-07,0.0,0.0,0.0,1.2184696791468346e-07,0.0,0.0,0.0,1.2184696791468346e-07,-0.16490128636360168,-0.18149223923683047,9.764960289001465,8.999999999999999e-08,0.0,0.0,0.0,8.999999999999999e-08,0.0,0.0,0.0,8.999999999999999e-08
32058000000,6007,32058000000,base_link,0.0063835978954080086,-0.012291211015702566,0.029507345817265107,-0.9994685954197036,1.0,0.0,0.0,0.0,1.0,0.0,0.0,0.0,1.0,-0.000580355292186141,-0.0004670955240726475,-0.0029139036778360605,1.2184696791468346e-07,0.0,0.0,0.0,1.2184696791468346e-07,0.0,0.0,0.0,1.2184696791468346e-07,-0.21065440773963928,-0.18058823049068332,9.788382530212402,8.999999999999999e-08,0.0,0.0,0.0,8.999999999999999e-08,0.0,0.0,0.0,8.999999999999999e-08
32062000000,6008,32062000000,base_link,0.006395473757792714,-0.01228859297201108,0.029513920725632747,-0.9994684268323095,1.0,0.0,0.0,0.0,1.0,0.0,0.0,0.0,1.0,8.613802492618561e-05,0.0003380142152309415,-0.002160019474104047,1.2184696791468346e-07,0.0,0.0,0.0,1.2184696791468346e-07,0.0,0.0,0.0,1.2184696791468346e-07,-0.21612288057804108,-0.16888943314552188,9.797471046447754,8.999999999999999e-08,0.0,0.0,0.0,8.999999999999999e-08,0.0,0.0,0.0,8.999999999999999e-08
32067000000,6009,32067000000,base_link,0.006402842541564787,-0.012279342068035192,0.02951379428508727,-0.999468468979158,1.0,0.0,0.0,0.0,1.0,0.0,0.0,0.0,1.0,-0.0016325651668012142,-0.0012319856323301794,-0.0009337424999102949,1.2184696791468346e-07,0.0,0.0,0.0,1.2184696791468346e-07,0.0,0.0,0.0,1.2184696791468346e-07,-0.15392927825450897,-0.21036504209041476,9.794535636901855,8.999999999999999e-08,0.0,0.0,0.0,8.999999999999999e-08,0.0,0.0,0.0,8.999999999999999e-08
32073000000,6010,32073000000,base_link,0.00640071445498724,-0.012283429983068495,0.029520453487151987,-0.999468216098067,1.0,0.0,0.0,0.0,1.0,0.0,0.0,0.0,1.0,0.0007081065559759736,0.0007294402457773683,-0.001971898367628455,1.2184696791468346e-07,0.0,0.0,0.0,1.2184696791468346e-07,0.0,0.0,0.0,1.2184696791468346e-07,-0.2302434742450714,-0.16178272664546847,9.819393157958984,8.999999999999999e-08,0.0,0.0,0.0,8.999999999999999e-08,0.0,0.0,0.0,8.999999999999999e-08
32078000000,6011,32078000000,base_link,0.006414493840272271,-0.012280490240384861,0.02953537347152485,-0.9994677103358849,1.0,0.0,0.0,0.0,1.0,0.0,0.0,0.0,1.0,-2.009514719247818e-05,0.0007134685292840001,-0.003049059771001339,1.2184696791468346e-07,0.0,0.0,0.0,1.2184696791468346e-07,0.0,0.0,0.0,1.2184696791468346e-07,-0.20408377051353455,-0.11938899755477785,9.831771850585938,8.999999999999999e-08,0.0,0.0,0.0,8.999999999999999e-08,0.0,0.0,0.0,8.999999999999999e-08
32083000000,6012,32083000000,base_link,0.006412160946352742,-0.012283891293496338,0.029535626352615862,-0.9994677103358849,1.0,0.0,0.0,0.0,1.0,0.0,0.0,0.0,1.0,0.0009328271844424307,0.001305593643337488,-0.002018120139837265,1.2184696791468346e-07,0.0,0.0,0.0,1.2184696791468346e-07,0.0,0.0,0.0,1.2184696791468346e-07,-0.22675764560699463,-0.14374487102031588,9.798748970031738,8.999999999999999e-08,0.0,0.0,0.0,8.999999999999999e-08,0.0,0.0,0.0,8.999999999999999e-08
32087000000,6013,32087000000,base_link,0.006405286400233911,-0.012279836634960687,0.029529051444248167,-0.999468047510673,1.0,0.0,0.0,0.0,1.0,0.0,0.0,0.0,1.0,0.0030321981757879257,0.0006274580955505371,0.0004028358380310237,1.2184696791468346e-07,0.0,0.0,0.0,1.2184696791468346e-07,0.0,0.0,0.0,1.2184696791468346e-07,-0.236643984913826,-0.10000623762607454,9.822162628173828,8.999999999999999e-08,0.0,0.0,0.0,8.999999999999999e-08,0.0,0.0,0.0,8.999999999999999e-08
32092000000,6014,32092000000,base_link,0.006416671976232423,-0.012284872524813232,0.029532718220068643,-0.9994677524827333,1.0,0.0,0.0,0.0,1.0,0.0,0.0,0.0,1.0,0.0005280445329844952,0.002262136898934841,0.0004624621942639348,1.2184696791468346e-07,0.0,0.0,0.0,1.2184696791468346e-07,0.0,0.0,0.0,1.2184696791468346e-07,-0.21785524487495422,-0.14103622734546542,9.767486572265625,8.999999999999999e-08,0.0,0.0,0.0,8.999999999999999e-08,0.0,0.0,0.0,8.999999999999999e-08
32098000000,6015,32098000000,base_link,0.006416602170514578,-0.012308418125151646,0.029528334947823476,-0.9994675838953394,1.0,0.0,0.0,0.0,1.0,0.0,0.0,0.0,1.0,0.00023080618120729923,0.005854460410773754,0.0010245284065604203,1.2184696791468346e-07,0.0,0.0,0.0,1.2184696791468346e-07,0.0,0.0,0.0,1.2184696791468346e-07,-0.24262218177318573,-0.13307185471057772,9.787307739257812,8.999999999999999e-08,0.0,0.0,0.0,8.999999999999999e-08,0.0,0.0,0.0,8.999999999999999e-08
32103000000,6016,32103000000,base_link,0.006414457620324333,-0.012299460932026317,0.02951720817981668,-0.9994680896575214,1.0,0.0,0.0,0.0,1.0,0.0,0.0,0.0,1.0,0.0017457427456974983,0.002910431474447251,0.0031981836073100563,1.2184696791468346e-07,0.0,0.0,0.0,1.2184696791468346e-07,0.0,0.0,0.0,1.2184696791468346e-07,-0.26193055510520935,-0.1263188272714603,9.782795906066895,8.999999999999999e-08,0.0,0.0,0.0,8.999999999999999e-08,0.0,0.0,0.0,8.999999999999999e-08
32108000000,6017,32108000000,base_link,0.0064141622631125024,-0.012301526456875605,0.02951990557812134,-0.9994679210701274,1.0,0.0,0.0,0.0,1.0,0.0,0.0,0.0,1.0,0.0024363917764276266,0.001336920075118542,0.0013338499702513216,1.2184696791468346e-07,0.0,0.0,0.0,1.2184696791468346e-07,0.0,0.0,0.0,1.2184696791468346e-07,-0.20066170394420624,-0.195602163672446,9.830878257751465,8.999999999999999e-08,0.0,0.0,0.0,8.999999999999999e-08,0.0,0.0,0.0,8.999999999999999e-08
32112000000,6018,32112000000,base_link,0.006408174776445923,-0.012296848156690897,0.029521633598910246,-0.9994679632169758,1.0,0.0,0.0,0.0,1.0,0.0,0.0,0.0,1.0,0.003345408011227846,-0.00041191326454281823,-0.0014166422188282013,1.2184696791468346e-07,0.0,0.0,0.0,1.2184696791468346e-07,0.0,0.0,0.0,1.2184696791468346e-07,-0.21039849519729614,-0.1458999365568149,9.799152374267578,8.999999999999999e-08,0.0,0.0,0.0,8.999999999999999e-08,0.0,0.0,0.0,8.999999999999999e-08
32117000000,6019,32117000000,base_link,0.006402042080715334,-0.012290024647771436,0.029530653024491593,-0.999467794629582,1.0,0.0,0.0,0.0,1.0,0.0,0.0,0.0,1.0,0.004124127794057131,-0.0022716815583407883,-0.00486766267567873,1.2184696791468346e-07,0.0,0.0,0.0,1.2184696791468346e-07,0.0,0.0,0.0,1.2184696791468346e-07,-0.2201259583234787,-0.09565930068492769,9.80678653717041,8.999999999999999e-08,0.0,0.0,0.0,8.999999999999999e-08,0.0,0.0,0.0,8.999999999999999e-08
32123000000,6020,32123000000,base_link,0.006399837932247116,-0.012289881743613203,0.029547933232381085,-0.9994673731610968,1.0,0.0,0.0,0.0,1.0,0.0,0.0,0.0,1.0,0.0025932355783879757,0.0011551207862794395,-0.004318924155086279,1.2184696791468346e-07,0.0,0.0,0.0,1.2184696791468346e-07,0.0,0.0,0.0,1.2184696791468346e-07,-0.18747873604297638,-0.12755949795246005,9.781296730041504,8.999999999999999e-08,0.0,0.0,0.0,8.999999999999999e-08,0.0,0.0,0.0,8.999999999999999e-08
32128000000,6021,32128000000,base_link,0.00641012637309533,-0.012290165576296141,0.02954755391074443,-0.9994673310142482,1.0,0.0,0.0,0.0,1.0,0.0,0.0,0.0,1.0,-0.0008622256573289633,0.0016399021260440347,-0.0018408577889204027,1.2184696791468346e-07,0.0,0.0,0.0,1.2184696791468346e-07,0.0,0.0,0.0,1.2184696791468346e-07,-0.16623985767364502,-0.14642760157585025,9.745810508728027,8.999999999999999e-08,0.0,0.0,0.0,8.999999999999999e-08,0.0,0.0,0.0,8.999999999999999e-08
32133000000,6022,32133000000,base_link,0.006413785246381681,-0.012288801072075603,0.02955004057480659,-0.9994672045737027,1.0,0.0,0.0,0.0,1.0,0.0,0.0,0.0,1.0,-0.0018724785186350346,0.0013472856953740118,-0.0015259431675076487,1.2184696791468346e-07,0.0,0.0,0.0,1.2184696791468346e-07,0.0,0.0,0.0,1.2184696791468346e-07,-0.2399909347295761,-0.12976588308811068,9.800668716430664,8.999999999999999e-08,0.0,0.0,0.0,8.999999999999999e-08,0.0,0.0,0.0,8.999999999999999e-08
32137000000,6023,32137000000,base_link,0.006418574511315985,-0.012291246577105995,0.029555224637173416,-0.9994669938394602,1.0,0.0,0.0,0.0,1.0,0.0,0.0,0.0,1.0,-0.00016709754709154367,0.0015049665234982965,-0.0012030554935336115,1.2184696791468346e-07,0.0,0.0,0.0,1.2184696791468346e-07,0.0,0.0,0.0,1.2184696791468346e-07,-0.2155040204524994,-0.19581976532935977,9.804402351379395,8.999999999999999e-08,0.0,0.0,0.0,8.999999999999999e-08,0.0,0.0,0.0,8.999999999999999e-08
32142000000,6024,32142000000,base_link,0.006406098385612252,-0.012299614702168933,0.029549071197290833,-0.9994671624268542,1.0,0.0,0.0,0.0,1.0,0.0,0.0,0.0,1.0,0.003365887328982353,0.00340348482131958,0.0002664965577423568,1.2184696791468346e-07,0.0,0.0,0.0,1.2184696791468346e-07,0.0,0.0,0.0,1.2184696791468346e-07,-0.2035353034734726,-0.13769516348838687,9.757786750793457,8.999999999999999e-08,0.0,0.0,0.0,8.999999999999999e-08,0.0,0.0,0.0,8.999999999999999e-08
32148000000,6025,32148000000,base_link,0.006414674940011966,-0.01229984288784095,0.02954999842795808,-0.9994670781331572,1.0,0.0,0.0,0.0,1.0,0.0,0.0,0.0,1.0,-5.785608664155006e-06,0.002618584781885147,-0.0004970316658727828,1.2184696791468346e-07,0.0,0.0,0.0,1.2184696791468346e-07,0.0,0.0,0.0,1.2184696791468346e-07,-0.25212037563323975,-0.182269901037215,9.819221496582031,8.999999999999999e-08,0.0,0.0,0.0,8.999999999999999e-08,0.0,0.0,0.0,8.999999999999999e-08
32153000000,6026,32153000000,base_link,0.006412853076630631,-0.012302630177470986,0.029556278308386252,-0.9994668673989147,1.0,0.0,0.0,0.0,1.0,0.0,0.0,0.0,1.0,0.0016349988291040063,0.002708308398723602,-0.003150141099467874,1.2184696791468346e-07,0.0,0.0,0.0,1.2184696791468346e-07,0.0,0.0,0.0,1.2184696791468346e-07,-0.19525668025016785,-0.1849435865879047,9.817642211914062,8.999999999999999e-08,0.0,0.0,0.0,8.999999999999999e-08,0.0,0.0,0.0,8.999999999999999e-08
32158000000,6027,32158000000,base_link,0.006394544880764204,-0.012300381247976225,0.029569343831424566,-0.9994666145178237,1.0,0.0,0.0,0.0,1.0,0.0,0.0,0.0,1.0,0.004132822621613741,0.0007515749894082542,-0.0031122902873903513,1.2184696791468346e-07,0.0,0.0,0.0,1.2184696791468346e-07,0.0,0.0,0.0,1.2184696791468346e-07,-0.1916540414094925,-0.16971394419669986,9.83886432647705,8.999999999999999e-08,0.0,0.0,0.0,8.999999999999999e-08,0.0,0.0,0.0,8.999999999999999e-08
32163000000,6028,32162000000,base_link,0.006401276851997057,-0.012298023329365393,0.029565972083543723,-0.9994666988115206,1.0,0.0,0.0,0.0,1.0,0.0,0.0,0.0,1.0,0.002238233108073473,0.0002911780029535292,-0.0013880975311622024,1.2184696791468346e-07,0.0,0.0,0.0,1.2184696791468346e-07,0.0,0.0,0.0,1.2184696791468346e-07,-0.23877666890621185,-0.13486914336681247,9.815092086791992,8.999999999999999e-08,0.0,0.0,0.0,8.999999999999999e-08,0.0,0.0,0.0,8.999999999999999e-08
32167000000,6029,32167000000,base_link,0.006399578136438717,-0.012295030573848864,0.02956845874760583,-0.9994666566646722,1.0,0.0,0.0,0.0,1.0,0.0,0.0,0.0,1.0,0.0009141156915575266,-0.0009732050821185113,-0.00066881236853078,1.2184696791468346e-07,0.0,0.0,0.0,1.2184696791468346e-07,0.0,0.0,0.0,1.2184696791468346e-07,-0.18748554587364197,-0.20365029573440432,9.782196998596191,8.999999999999999e-08,0.0,0.0,0.0,8.999999999999999e-08,0.0,0.0,0.0,8.999999999999999e-08
32172000000,6030,32172000000,base_link,0.006405673295132351,-0.012297483322868846,0.02955202147668662,-0.9994670781331572,1.0,0.0,0.0,0.0,1.0,0.0,0.0,0.0,1.0,-0.0008230657549574971,0.0009634313173592095,0.003162302076816559,1.2184696791468346e-07,0.0,0.0,0.0,1.2184696791468346e-07,0.0,0.0,0.0,1.2184696791468346e-07,-0.2402839958667755,-0.18316853046417117,9.846774101257324,8.999999999999999e-08,0.0,0.0,0.0,8.999999999999999e-08,0.0,0.0,0.0,8.999999999999999e-08
32178000000,6031,32178000000,base_link,0.006416229763595313,-0.012296741801752858,0.029552147917232208,-0.9994670359863087,1.0,0.0,0.0,0.0,1.0,0.0,0.0,0.0,1.0,-0.002640307880938053,0.0008701737970113756,0.0015910258516669273,1.2184696791468346e-07,0.0,0.0,0.0,1.2184696791468346e-07,0.0,0.0,0.0,1.2184696791468346e-07,-0.22550180554389954,-0.1902560740709293,9.846983909606934,8.999999999999999e-08,0.0,0.0,0.0,8.999999999999999e-08,0.0,0.0,0.0,8.999999999999999e-08
32183000000,6032,32183000000,base_link,0.006427905757721847,-0.012283090174102377,0.02954262272946867,-0.9994673731610968,1.0,0.0,0.0,0.0,1.0,0.0,0.0,0.0,1.0,-0.0036031408235430717,-0.002288518706336617,0.0023686748463660483,1.2184696791468346e-07,0.0,0.0,0.0,1.2184696791468346e-07,0.0,0.0,0.0,1.2184696791468346e-07,-0.20761293172836304,-0.2023608386516559,9.79052448272705,8.999999999999999e-08,0.0,0.0,0.0,8.999999999999999e-08,0.0,0.0,0.0,8.999999999999999e-08
32187000000,6033,32187000000,base_link,0.006428415800443279,-0.012282869890964457,0.029540093918558052,-0.9994674574547937,1.0,0.0,0.0,0.0,1.0,0.0,0.0,0.0,1.0,-0.002214376349002123,-0.001860924996435642,0.001719600521028042,1.2184696791468346e-07,0.0,0.0,0.0,1.2184696791468346e-07,0.0,0.0,0.0,1.2184696791468346e-07,-0.2187470644712448,-0.14638064801692843,9.799603462219238,8.999999999999999e-08,0.0,0.0,0.0,8.999999999999999e-08,0.0,0.0,0.0,8.999999999999999e-08
32192000000,6034,32192000000,base_link,0.006429379580330712,-0.012277726987629365,0.029543676400681507,-0.9994674153079453,1.0,0.0,0.0,0.0,1.0,0.0,0.0,0.0,1.0,-0.00013418984599411488,-0.000566611997783184,-0.00043255847413092846,1.2184696791468346e-07,0.0,0.0,0.0,1.2184696791468346e-07,0.0,0.0,0.0,1.2184696791468346e-07,-0.18344824016094208,-0.12436298280954242,9.78695011138916,8.999999999999999e-08,0.0,0.0,0.0,8.999999999999999e-08,0.0,0.0,0.0,8.999999999999999e-08
32197000000,6035,32197000000,base_link,0.006427908062627626,-0.012281860342233717,0.029551810742444062,-0.9994671202800056,1.0,0.0,0.0,0.0,1.0,0.0,0.0,0.0,1.0,-0.0006437367992475629,0.0012633954174816604,-0.0027023297734558582,1.2184696791468346e-07,0.0,0.0,0.0,1.2184696791468346e-07,0.0,0.0,0.0,1.2184696791468346e-07,-0.20714759826660156,-0.1420227438211429,9.786558151245117,8.999999999999999e-08,0.0,0.0,0.0,8.999999999999999e-08,0.0,0.0,0.0,8.999999999999999e-08
32203000000,6036,32203000000,base_link,0.006437794132781462,-0.012279779341588493,0.02955514034347645,-0.9994669938394602,1.0,0.0,0.0,0.0,1.0,0.0,0.0,0.0,1.0,-0.0014715705765411258,0.0008192854002118106,-0.00311213918030262,1.2184696791468346e-07,0.0,0.0,0.0,1.2184696791468346e-07,0.0,0.0,0.0,1.2184696791468346e-07,-0.1593034863471985,-0.12632285058498263,9.777183532714844,8.999999999999999e-08,0.0,0.0,0.0,8.999999999999999e-08,0.0,0.0,0.0,8.999999999999999e-08
