%time,field.header.seq,field.header.stamp,field.header.frame_id,field.orientation.x,field.orientation.y,field.orientation.z,field.orientation.w,field.orientation_covariance0,field.orientation_covariance1,field.orientation_covariance2,field.orientation_covariance3,field.orientation_covariance4,field.orientation_covariance5,field.orientation_covariance6,field.orientation_covariance7,field.orientation_covariance8,field.angular_velocity.x,field.angular_velocity.y,field.angular_velocity.z,field.angular_velocity_covariance0,field.angular_velocity_covariance1,field.angular_velocity_covariance2,field.angular_velocity_covariance3,field.angular_velocity_covariance4,field.angular_velocity_covariance5,field.angular_velocity_covariance6,field.angular_velocity_covariance7,field.angular_velocity_covariance8,field.linear_acceleration.x,field.linear_acceleration.y,field.linear_acceleration.z,field.linear_acceleration_covariance0,field.linear_acceleration_covariance1,field.linear_acceleration_covariance2,field.linear_acceleration_covariance3,field.linear_acceleration_covariance4,field.linear_acceleration_covariance5,field.linear_acceleration_covariance6,field.linear_acceleration_covariance7,field.linear_acceleration_covariance8
650464000000,129810,633438095308438592,base_link,0.009835333909308132,0.020838926434322055,-0.030912943215103184,-0.9992564281842997,1.0,0.0,0.0,0.0,1.0,0.0,0.0,0.0,1.0,2.5251576900482178,0.8516770005226135,-0.17292802035808574,1.2184696791468346e-07,0.0,0.0,0.0,1.2184696791468346e-07,0.0,0.0,0.0,1.2184696791468346e-07,0.20834344625473022,0.012973440811038902,7.2311015129089355,8.999999999999999e-08,0.0,0.0,0.0,8.999999999999999e-08,0.0,0.0,0.0,8.999999999999999e-08
650464000000,129811,633438095316438592,base_link,-0.000644278458306224,0.016373764179621424,-0.030298695044905455,-0.9994065552586956,1.0,0.0,0.0,0.0,1.0,0.0,0.0,0.0,1.0,2.6390342712402344,1.0126945972442627,-0.19457602500915538,1.2184696791468346e-07,0.0,0.0,0.0,1.2184696791468346e-07,0.0,0.0,0.0,1.2184696791468346e-07,0.1491205394268036,-0.07341202348470588,8.17248821258545,8.999999999999999e-08,0.0,0.0,0.0,8.999999999999999e-08,0.0,0.0,0.0,8.999999999999999e-08
650464000000,129812,633438095320438592,base_link,-0.005973301947149124,0.013851319089454193,-0.02992384097424955,-0.9994383339824728,1.0,0.0,0.0,0.0,1.0,0.0,0.0,0.0,1.0,2.6899495124816895,1.1201667785644531,-0.21416963636875166,1.2184696791468346e-07,0.0,0.0,0.0,1.2184696791468346e-07,0.0,0.0,0.0,1.2184696791468346e-07,0.17958462238311768,-0.06542372703552143,8.424442291259766,8.999999999999999e-08,0.0,0.0,0.0,8.999999999999999e-08,0.0,0.0,0.0,8.999999999999999e-08
650467000000,129813,633438095324352576,base_link,-0.01123712198602295,0.011215536813518818,-0.02949369023834736,-0.9994389240383519,1.0,0.0,0.0,0.0,1.0,0.0,0.0,0.0,1.0,2.6895909309387207,1.215722918510437,-0.2451475709676744,1.2184696791468346e-07,0.0,0.0,0.0,1.2184696791468346e-07,0.0,0.0,0.0,1.2184696791468346e-07,0.18359751999378204,-0.041117578744887265,8.51771354675293,8.999999999999999e-08,0.0,0.0,0.0,8.999999999999999e-08,0.0,0.0,0.0,8.999999999999999e-08
650472000000,129814,633438095328352576,base_link,-0.016365151405273642,0.00851913557478974,-0.029008706452532507,-0.9994089576290607,1.0,0.0,0.0,0.0,1.0,0.0,0.0,0.0,1.0,2.622364044189453,1.2683426141738892,-0.2777094542980196,1.2184696791468346e-07,0.0,0.0,0.0,1.2184696791468346e-07,0.0,0.0,0.0,1.2184696791468346e-07,0.13858138024806976,-0.003460683859883704,8.449024200439453,8.999999999999999e-08,0.0,0.0,0.0,8.999999999999999e-08,0.0,0.0,0.0,8.999999999999999e-08
650478000000,129815,633438095336352576,base_link,-0.02595327066973528,0.0031194041621247365,-0.027900623658332624,-0.999268903651459,1.0,0.0,0.0,0.0,1.0,0.0,0.0,0.0,1.0,2.468235731124878,1.2831506729125977,-0.31349763274192827,1.2184696791468346e-07,0.0,0.0,0.0,1.2184696791468346e-07,0.0,0.0,0.0,1.2184696791468346e-07,0.16253699362277985,-0.054631680250166834,8.295913696289062,8.999999999999999e-08,0.0,0.0,0.0,8.999999999999999e-08,0.0,0.0,0.0,8.999999999999999e-08
650483000000,129816,633438095340352576,base_link,-0.03037179480238058,0.0005136001788648025,-0.027268336636972257,-0.9991665711032744,1.0,0.0,0.0,0.0,1.0,0.0,0.0,0.0,1.0,2.309103488922119,1.2538368701934814,-0.3428373634815218,1.2184696791468346e-07,0.0,0.0,0.0,1.2184696791468346e-07,0.0,0.0,0.0,1.2184696791468346e-07,0.1532534956932068,0.03813723102212052,8.186644554138184,8.999999999999999e-08,0.0,0.0,0.0,8.999999999999999e-08,0.0,0.0,0.0,8.999999999999999e-08
650487000000,129817,633438095343352576,base_link,-0.03451476020528362,-0.001999941718826748,-0.02660030908807448,-0.9990481384589589,1.0,0.0,0.0,0.0,1.0,0.0,0.0,0.0,1.0,2.1729111671447754,1.2135549783706665,-0.36284044384956377,1.2184696791468346e-07,0.0,0.0,0.0,1.2184696791468346e-07,0.0,0.0,0.0,1.2184696791468346e-07,0.1720828413963318,0.014231441542507214,8.135459899902344,8.999999999999999e-08,0.0,0.0,0.0,8.999999999999999e-08,0.0,0.0,0.0,8.999999999999999e-08
650492000000,129818,633438095347352576,base_link,-0.038387615675703445,-0.0043874474173135215,-0.025895782368366427,-0.9989177361096662,1.0,0.0,0.0,0.0,1.0,0.0,0.0,0.0,1.0,2.000004768371582,1.1465171575546265,-0.38480243086814897,1.2184696791468346e-07,0.0,0.0,0.0,1.2184696791468346e-07,0.0,0.0,0.0,1.2184696791468346e-07,0.20621192455291748,-0.03837699815630812,8.20009708404541,8.999999999999999e-08,0.0,0.0,0.0,8.999999999999999e-08,0.0,0.0,0.0,8.999999999999999e-08
650497000000,129819,633438095352352576,base_link,-0.041994107014801475,-0.006653971904238791,-0.025148729478510823,-0.9987791994186109,1.0,0.0,0.0,0.0,1.0,0.0,0.0,0.0,1.0,1.8269875049591064,1.0662130117416382,-0.4047663509845735,1.2184696791468346e-07,0.0,0.0,0.0,1.2184696791468346e-07,0.0,0.0,0.0,1.2184696791468346e-07,0.22319944202899933,0.06985530257225138,8.253885269165039,8.999999999999999e-08,0.0,0.0,0.0,8.999999999999999e-08,0.0,0.0,0.0,8.999999999999999e-08
650503000000,129820,633438095359352576,base_link,-0.048365606789053266,-0.010667476676495537,-0.02356560955474457,-0.9984947081911624,1.0,0.0,0.0,0.0,1.0,0.0,0.0,0.0,1.0,1.6176637411117554,0.9449225068092346,-0.4251079261302949,1.2184696791468346e-07,0.0,0.0,0.0,1.2184696791468346e-07,0.0,0.0,0.0,1.2184696791468346e-07,0.22750158607959747,-0.018660465255378636,8.510194778442383,8.999999999999999e-08,0.0,0.0,0.0,8.999999999999999e-08,0.0,0.0,0.0,8.999999999999999e-08
650508000000,129821,633438095364352576,base_link,-0.051169797305343,-0.01238307204766558,-0.022721913941253502,-0.9983546963604092,1.0,0.0,0.0,0.0,1.0,0.0,0.0,0.0,1.0,1.4487239122390747,0.8229244947433472,-0.4394822716712953,1.2184696791468346e-07,0.0,0.0,0.0,1.2184696791468346e-07,0.0,0.0,0.0,1.2184696791468346e-07,0.1699775755405426,-0.021642792969941028,8.7015962600708,8.999999999999999e-08,0.0,0.0,0.0,8.999999999999999e-08,0.0,0.0,0.0,8.999999999999999e-08
650513000000,129822,633438095368352576,base_link,-0.05370376725367217,-0.013843374737782016,-0.0218737507618203,-0.9982213437317207,1.0,0.0,0.0,0.0,1.0,0.0,0.0,0.0,1.0,1.2941839694976807,0.6774849891662598,-0.44516283273696905,1.2184696791468346e-07,0.0,0.0,0.0,1.2184696791468346e-07,0.0,0.0,0.0,1.2184696791468346e-07,0.22344033420085907,-0.004760126117615794,8.965250968933105,8.999999999999999e-08,0.0,0.0,0.0,8.999999999999999e-08,0.0,0.0,0.0,8.999999999999999e-08
650517000000,129823,633438095371352576,base_link,-0.056051485010075654,-0.01503925336869717,-0.0210109204791053,-0.9980934701933387,1.0,0.0,0.0,0.0,1.0,0.0,0.0,0.0,1.0,1.1916260719299316,0.5482889413833618,-0.44561454653739935,1.2184696791468346e-07,0.0,0.0,0.0,1.2184696791468346e-07,0.0,0.0,0.0,1.2184696791468346e-07,0.2257206290960312,-0.017766030505298434,9.261120796203613,8.999999999999999e-08,0.0,0.0,0.0,8.999999999999999e-08,0.0,0.0,0.0,8.999999999999999e-08
650522000000,129824,633438095379352576,base_link,-0.06030002300014241,-0.016627010762888594,-0.019251795315957554,-0.9978560991425254,1.0,0.0,0.0,0.0,1.0,0.0,0.0,0.0,1.0,1.0901126861572266,0.381037950515747,-0.4441395998001099,1.2184696791468346e-07,0.0,0.0,0.0,1.2184696791468346e-07,0.0,0.0,0.0,1.2184696791468346e-07,0.238943949341774,0.02918895520269989,9.66209602355957,8.999999999999999e-08,0.0,0.0,0.0,8.999999999999999e-08,0.0,0.0,0.0,8.999999999999999e-08
650528000000,129825,633438095383352576,base_link,-0.06229276287622993,-0.016995764077222527,-0.018367554434199074,-0.9977441571128803,1.0,0.0,0.0,0.0,1.0,0.0,0.0,0.0,1.0,1.0105643272399902,0.17065382003784174,-0.43557852506637573,1.2184696791468346e-07,0.0,0.0,0.0,1.2184696791468346e-07,0.0,0.0,0.0,1.2184696791468346e-07,0.1939317137002945,-0.00019406474893794438,9.654640197753906,8.999999999999999e-08,0.0,0.0,0.0,8.999999999999999e-08,0.0,0.0,0.0,8.999999999999999e-08
650533000000,129826,633438095387352576,base_link,-0.06421067892532045,-0.017076045921101686,-0.017489087670686465,-0.9976369776771172,1.0,0.0,0.0,0.0,1.0,0.0,0.0,0.0,1.0,0.9753760099411011,-0.007856389507651381,-0.42426323890686035,1.2184696791468346e-07,0.0,0.0,0.0,1.2184696791468346e-07,0.0,0.0,0.0,1.2184696791468346e-07,0.17033150792121887,-0.04758369177579763,9.500417709350586,8.999999999999999e-08,0.0,0.0,0.0,8.999999999999999e-08,0.0,0.0,0.0,8.999999999999999e-08
650538000000,129827,633438095392352576,base_link,-0.06613506978401346,-0.016872184249032522,-0.0166186709552395,-0.9975295875071115,1.0,0.0,0.0,0.0,1.0,0.0,0.0,0.0,1.0,0.9667157530784607,-0.18843711912631994,-0.4032668471336365,1.2184696791468346e-07,0.0,0.0,0.0,1.2184696791468346e-07,0.0,0.0,0.0,1.2184696791468346e-07,0.2044169306755066,0.0022518390323978217,9.370978355407715,8.999999999999999e-08,0.0,0.0,0.0,8.999999999999999e-08,0.0,0.0,0.0,8.999999999999999e-08
650542000000,129828,633438095399352576,base_link,-0.07006570331538567,-0.01558277254164858,-0.014926559281224052,-0.9973089909020054,1.0,0.0,0.0,0.0,1.0,0.0,0.0,0.0,1.0,0.9781742691993713,-0.3332823812961579,-0.38680905103683466,1.2184696791468346e-07,0.0,0.0,0.0,1.2184696791468346e-07,0.0,0.0,0.0,1.2184696791468346e-07,0.191050186753273,-0.004829372279344889,8.983017921447754,8.999999999999999e-08,0.0,0.0,0.0,8.999999999999999e-08,0.0,0.0,0.0,8.999999999999999e-08
650547000000,129829,633438095404352576,base_link,-0.0721568718878143,-0.014509171137886641,-0.014098921617015705,-0.9971881558873247,1.0,0.0,0.0,0.0,1.0,0.0,0.0,0.0,1.0,1.0180776119232178,-0.5120196342468262,-0.3647098839282989,1.2184696791468346e-07,0.0,0.0,0.0,1.2184696791468346e-07,0.0,0.0,0.0,1.2184696791468346e-07,0.23987437784671783,-0.024954341351984845,8.874189376831055,8.999999999999999e-08,0.0,0.0,0.0,8.999999999999999e-08,0.0,0.0,0.0,8.999999999999999e-08
650553000000,129830,633438095408352576,base_link,-0.07434418005587434,-0.013183550019275781,-0.013291219412152944,-0.9970569106010618,1.0,0.0,0.0,0.0,1.0,0.0,0.0,0.0,1.0,1.092150092124939,-0.7091296315193176,-0.3365103304386138,1.2184696791468346e-07,0.0,0.0,0.0,1.2184696791468346e-07,0.0,0.0,0.0,1.2184696791468346e-07,0.23768846690654755,0.010309122502804885,8.835281372070312,8.999999999999999e-08,0.0,0.0,0.0,8.999999999999999e-08,0.0,0.0,0.0,8.999999999999999e-08
650558000000,129831,633438095416352576,base_link,-0.07913509661980468,-0.009842421823847425,-0.011748265435017613,-0.9967460775932939,1.0,0.0,0.0,0.0,1.0,0.0,0.0,0.0,1.0,1.1747814416885376,-0.8538875579833984,-0.30890777707099903,1.2184696791468346e-07,0.0,0.0,0.0,1.2184696791468346e-07,0.0,0.0,0.0,1.2184696791468346e-07,0.23679041862487793,-0.012972819618879649,8.97464656829834,8.999999999999999e-08,0.0,0.0,0.0,8.999999999999999e-08,0.0,0.0,0.0,8.999999999999999e-08
650563000000,129832,633438095420352576,base_link,-0.08177340504288963,-0.007867841971112038,-0.011019462130567259,-0.9965590298796025,1.0,0.0,0.0,0.0,1.0,0.0,0.0,0.0,1.0,1.272019863128662,-0.9819399118423462,-0.27981099486351,1.2184696791468346e-07,0.0,0.0,0.0,1.2184696791468346e-07,0.0,0.0,0.0,1.2184696791468346e-07,0.19039146602153778,-0.005213365424423277,9.251489639282227,8.999999999999999e-08,0.0,0.0,0.0,8.999999999999999e-08,0.0,0.0,0.0,8.999999999999999e-08
650567000000,129833,633438095424266560,base_link,-0.08460317342786941,-0.005697587471630731,-0.010317632809163757,-0.9963450924765612,1.0,0.0,0.0,0.0,1.0,0.0,0.0,0.0,1.0,1.3535807132720947,-1.0727214813232422,-0.2562257349491118,1.2184696791468346e-07,0.0,0.0,0.0,1.2184696791468346e-07,0.0,0.0,0.0,1.2184696791468346e-07,0.2336907982826233,0.022821135818959455,9.575122833251953,8.999999999999999e-08,0.0,0.0,0.0,8.999999999999999e-08,0.0,0.0,0.0,8.999999999999999e-08
650572000000,129834,633438095428266560,base_link,-0.08750785256772123,-0.0034207172504850526,-0.009673502523371735,-0.9961110510267802,1.0,0.0,0.0,0.0,1.0,0.0,0.0,0.0,1.0,1.4472426176071167,-1.1749022006988525,-0.22315812110900865,1.2184696791468346e-07,0.0,0.0,0.0,1.2184696791468346e-07,0.0,0.0,0.0,1.2184696791468346e-07,0.2061183899641037,-0.010545803233979911,9.967613220214844,8.999999999999999e-08,0.0,0.0,0.0,8.999999999999999e-08,0.0,0.0,0.0,8.999999999999999e-08
650577000000,129835,633438095432266560,base_link,-0.09060094129130691,-0.0009436468647345953,-0.009051878654684653,-0.9958457366154042,1.0,0.0,0.0,0.0,1.0,0.0,0.0,0.0,1.0,1.523171305656433,-1.2599170207977295,-0.18932838737964613,1.2184696791468346e-07,0.0,0.0,0.0,1.2184696791468346e-07,0.0,0.0,0.0,1.2184696791468346e-07,0.23138588666915894,0.02043794840574393,10.468981742858887,8.999999999999999e-08,0.0,0.0,0.0,8.999999999999999e-08,0.0,0.0,0.0,8.999999999999999e-08
650583000000,129836,633438095440266560,base_link,-0.09698714241315493,0.004231907107062235,-0.007984720450388838,-0.9952446382619418,1.0,0.0,0.0,0.0,1.0,0.0,0.0,0.0,1.0,1.5904699563980103,-1.3252722024917603,-0.14325723052024825,1.2184696791468346e-07,0.0,0.0,0.0,1.2184696791468346e-07,0.0,0.0,0.0,1.2184696791468346e-07,0.19699108600616455,0.03966993466019768,11.198179244995117,8.999999999999999e-08,0.0,0.0,0.0,8.999999999999999e-08,0.0,0.0,0.0,8.999999999999999e-08
650588000000,129837,633438095444266560,base_link,-0.10030627522201666,0.006901451613249816,-0.007535603632656651,-0.9949041760196708,1.0,0.0,0.0,0.0,1.0,0.0,0.0,0.0,1.0,1.6309332847595215,-1.3448114395141602,-0.10338634997606261,1.2184696791468346e-07,0.0,0.0,0.0,1.2184696791468346e-07,0.0,0.0,0.0,1.2184696791468346e-07,0.21567146480083466,0.03189097717404504,11.32425308227539,8.999999999999999e-08,0.0,0.0,0.0,8.999999999999999e-08,0.0,0.0,0.0,8.999999999999999e-08
650593000000,129838,633438095448266560,base_link,-0.10356243010249098,0.009458232226246498,-0.007159822331333609,-0.9945522498346048,1.0,0.0,0.0,0.0,1.0,0.0,0.0,0.0,1.0,1.6650521755218506,-1.3371379375457764,-0.06864441186189635,1.2184696791468346e-07,0.0,0.0,0.0,1.2184696791468346e-07,0.0,0.0,0.0,1.2184696791468346e-07,0.23244152963161469,0.046237610280515144,11.263473510742188,8.999999999999999e-08,0.0,0.0,0.0,8.999999999999999e-08,0.0,0.0,0.0,8.999999999999999e-08
650597000000,129839,633438095452266560,base_link,-0.10693224976504315,0.012046533413573264,-0.006824923473066068,-0.9941698936249139,1.0,0.0,0.0,0.0,1.0,0.0,0.0,0.0,1.0,1.6841189861297607,-1.3190933465957642,-0.04419604688882812,1.2184696791468346e-07,0.0,0.0,0.0,1.2184696791468346e-07,0.0,0.0,0.0,1.2184696791468346e-07,0.22373521327972412,0.0685493797063841,10.974323272705078,8.999999999999999e-08,0.0,0.0,0.0,8.999999999999999e-08,0.0,0.0,0.0,8.999999999999999e-08
650602000000,129840,633438095460266560,base_link,-0.11365235402586264,0.017070037361010974,-0.006341499120646076,-0.9933536777566521,1.0,0.0,0.0,0.0,1.0,0.0,0.0,0.0,1.0,1.6825966835021973,-1.2812552452087402,-0.009681514464318596,1.2184696791468346e-07,0.0,0.0,0.0,1.2184696791468346e-07,0.0,0.0,0.0,1.2184696791468346e-07,0.22116540372371674,0.020632294937969486,10.069355964660645,8.999999999999999e-08,0.0,0.0,0.0,8.999999999999999e-08,0.0,0.0,0.0,8.999999999999999e-08
650607000000,129841,633438095464266560,base_link,-0.11688926360163568,0.019439332986763008,-0.006192762892251124,-0.9929354545788784,1.0,0.0,0.0,0.0,1.0,0.0,0.0,0.0,1.0,1.6403172016143799,-1.2197426557540894,0.024078760296106488,1.2184696791468346e-07,0.0,0.0,0.0,1.2184696791468346e-07,0.0,0.0,0.0,1.2184696791468346e-07,0.23011134564876556,0.051183238625527594,9.515738487243652,8.999999999999999e-08,0.0,0.0,0.0,8.999999999999999e-08,0.0,0.0,0.0,8.999999999999999e-08
650613000000,129842,633438095468266560,base_link,-0.11994874021353391,0.021628192685683847,-0.006115549865779111,-0.9925256186239585,1.0,0.0,0.0,0.0,1.0,0.0,0.0,0.0,1.0,1.5431514978408813,-1.1085096597671509,0.06444929540157332,1.2184696791468346e-07,0.0,0.0,0.0,1.2184696791468346e-07,0.0,0.0,0.0,1.2184696791468346e-07,0.19824478030204773,0.08360296487808337,8.981609344482422,8.999999999999999e-08,0.0,0.0,0.0,8.999999999999999e-08,0.0,0.0,0.0,8.999999999999999e-08
650618000000,129843,633438095476266560,base_link,-0.12554361318116564,0.025490324417335695,-0.006150995365376831,-0.9917414765074133,1.0,0.0,0.0,0.0,1.0,0.0,0.0,0.0,1.0,1.4274572134017944,-0.9912965297698975,0.09182640910148633,1.2184696791468346e-07,0.0,0.0,0.0,1.2184696791468346e-07,0.0,0.0,0.0,1.2184696791468346e-07,0.21571670472621918,0.0496406555175791,7.961908340454102,8.999999999999999e-08,0.0,0.0,0.0,8.999999999999999e-08,0.0,0.0,0.0,8.999999999999999e-08
650623000000,129844,633438095480266560,base_link,-0.1279862917385312,0.027109169063570943,-0.0062584276822310585,-0.9913856306654358,1.0,0.0,0.0,0.0,1.0,0.0,0.0,0.0,1.0,1.2925375699996948,-0.8634040355682373,0.11714600026607525,1.2184696791468346e-07,0.0,0.0,0.0,1.2184696791468346e-07,0.0,0.0,0.0,1.2184696791468346e-07,0.24535490572452545,0.047372430562973945,7.547461032867432,8.999999999999999e-08,0.0,0.0,0.0,8.999999999999999e-08,0.0,0.0,0.0,8.999999999999999e-08
650627000000,129845,633438095484266560,base_link,-0.13020482808715977,0.028546956116959454,-0.006443831668830556,-0.9910551572262619,1.0,0.0,0.0,0.0,1.0,0.0,0.0,0.0,1.0,1.1713122129440308,-0.7571256756782532,0.1413317322731019,1.2184696791468346e-07,0.0,0.0,0.0,1.2184696791468346e-07,0.0,0.0,0.0,1.2184696791468346e-07,0.19786201417446136,0.04238564521074382,7.088135242462158,8.999999999999999e-08,0.0,0.0,0.0,8.999999999999999e-08,0.0,0.0,0.0,8.999999999999999e-08
650632000000,129846,633438095488266560,base_link,-0.13214230817649344,0.029772765595762418,-0.0066829728872813115,-0.9907610565173529,1.0,0.0,0.0,0.0,1.0,0.0,0.0,0.0,1.0,1.0061918497085571,-0.6238451600074768,0.16954171657562264,1.2184696791468346e-07,0.0,0.0,0.0,1.2184696791468346e-07,0.0,0.0,0.0,1.2184696791468346e-07,0.20044496655464172,0.03642217069864356,6.7722392082214355,8.999999999999999e-08,0.0,0.0,0.0,8.999999999999999e-08,0.0,0.0,0.0,8.999999999999999e-08
650637000000,129847,633438095492266560,base_link,-0.13377845937239846,0.030793204018483934,-0.006986935958741889,-0.9905080911325905,1.0,0.0,0.0,0.0,1.0,0.0,0.0,0.0,1.0,0.8247631788253784,-0.490141898393631,0.1981616616249085,1.2184696791468346e-07,0.0,0.0,0.0,1.2184696791468346e-07,0.0,0.0,0.0,1.2184696791468346e-07,0.2203749418258667,0.03470167890191158,6.492680072784424,8.999999999999999e-08,0.0,0.0,0.0,8.999999999999999e-08,0.0,0.0,0.0,8.999999999999999e-08
650643000000,129848,633438095500266560,base_link,-0.13610556073443503,0.032184529439745244,-0.007800201547608075,-0.9901407392009696,1.0,0.0,0.0,0.0,1.0,0.0,0.0,0.0,1.0,0.5915436744689941,-0.32213890552520746,0.23318807780742648,1.2184696791468346e-07,0.0,0.0,0.0,1.2184696791468346e-07,0.0,0.0,0.0,1.2184696791468346e-07,0.1973239630460739,0.02184421755373553,6.128016471862793,8.999999999999999e-08,0.0,0.0,0.0,8.999999999999999e-08,0.0,0.0,0.0,8.999999999999999e-08
650648000000,129849,633438095504266560,base_link,-0.13678858729304652,0.03255952575601486,-0.00830250768816093,-0.990030230164174,1.0,0.0,0.0,0.0,1.0,0.0,0.0,0.0,1.0,0.3910776376724243,-0.17959500849246976,0.2615140974521637,1.2184696791468346e-07,0.0,0.0,0.0,1.2184696791468346e-07,0.0,0.0,0.0,1.2184696791468346e-07,0.1944054812192917,0.026737587526441356,5.997884273529053,8.999999999999999e-08,0.0,0.0,0.0,8.999999999999999e-08,0.0,0.0,0.0,8.999999999999999e-08
650652000000,129850,633438095508266560,base_link,-0.13716434752094542,0.03271059059779003,-0.008876505618030826,-0.9899683164437114,1.0,0.0,0.0,0.0,1.0,0.0,0.0,0.0,1.0,0.23114819824695587,-0.06493310630321499,0.2839754521846771,1.2184696791468346e-07,0.0,0.0,0.0,1.2184696791468346e-07,0.0,0.0,0.0,1.2184696791468346e-07,0.168074369430542,0.07419422268867566,5.9853925704956055,8.999999999999999e-08,0.0,0.0,0.0,8.999999999999999e-08,0.0,0.0,0.0,8.999999999999999e-08
650657000000,129851,633438095512266560,base_link,-0.13720957635775366,0.03265303380779234,-0.009508624051997204,-0.9899580326126749,1.0,0.0,0.0,0.0,1.0,0.0,0.0,0.0,1.0,0.026088127866387367,0.08005350083112721,0.3126017153263092,1.2184696791468346e-07,0.0,0.0,0.0,1.2184696791468346e-07,0.0,0.0,0.0,1.2184696791468346e-07,0.1667150855064392,0.035420183092356464,5.978906631469727,8.999999999999999e-08,0.0,0.0,0.0,8.999999999999999e-08,0.0,0.0,0.0,8.999999999999999e-08
650662000000,129852,633438095520266560,base_link,-0.13624422913439194,0.03184535794470989,-0.011001634013647064,-0.9901021748345821,1.0,0.0,0.0,0.0,1.0,0.0,0.0,0.0,1.0,-0.19058002531528473,0.22749103605747228,0.3431373536586761,1.2184696791468346e-07,0.0,0.0,0.0,1.2184696791468346e-07,0.0,0.0,0.0,1.2184696791468346e-07,0.1982881873846054,0.07247135788202365,6.407867908477783,8.999999999999999e-08,0.0,0.0,0.0,8.999999999999999e-08,0.0,0.0,0.0,8.999999999999999e-08
650667000000,129853,633438095524181568,base_link,-0.13526268698448993,0.031129077522623304,-0.01182813371294572,-0.9902500259791583,1.0,0.0,0.0,0.0,1.0,0.0,0.0,0.0,1.0,-0.4053112268447876,0.37196233868598944,0.37023416161537165,1.2184696791468346e-07,0.0,0.0,0.0,1.2184696791468346e-07,0.0,0.0,0.0,1.2184696791468346e-07,0.17348046600818634,0.05962236598134125,6.840799808502197,8.999999999999999e-08,0.0,0.0,0.0,8.999999999999999e-08,0.0,0.0,0.0,8.999999999999999e-08
650673000000,129854,633438095528181568,base_link,-0.13392298618429838,0.030187158678677585,-0.012716757866949422,-0.9904502235095851,1.0,0.0,0.0,0.0,1.0,0.0,0.0,0.0,1.0,-0.6590723395347595,0.5360538959503174,0.39417645335197443,1.2184696791468346e-07,0.0,0.0,0.0,1.2184696791468346e-07,0.0,0.0,0.0,1.2184696791468346e-07,0.17494730651378632,0.0716586932539949,7.425536155700684,8.999999999999999e-08,0.0,0.0,0.0,8.999999999999999e-08,0.0,0.0,0.0,8.999999999999999e-08
650678000000,129855,633438095536181568,base_link,-0.1302789960038268,0.02775285680745356,-0.014609741420967713,-0.9909811895071253,1.0,0.0,0.0,0.0,1.0,0.0,0.0,0.0,1.0,-0.8653140664100647,0.6635307669639587,0.41200888156890864,1.2184696791468346e-07,0.0,0.0,0.0,1.2184696791468346e-07,0.0,0.0,0.0,1.2184696791468346e-07,0.18867208063602448,0.070449933409692,9.245503425598145,8.999999999999999e-08,0.0,0.0,0.0,8.999999999999999e-08,0.0,0.0,0.0,8.999999999999999e-08
650683000000,129856,633438095540181568,base_link,-0.1279815976332783,0.02626201214014591,-0.015631128147780782,-0.9913055516532652,1.0,0.0,0.0,0.0,1.0,0.0,0.0,0.0,1.0,-1.0169013738632202,0.7544904351234436,0.424760341644287,1.2184696791468346e-07,0.0,0.0,0.0,1.2184696791468346e-07,0.0,0.0,0.0,1.2184696791468346e-07,0.17338863015174866,0.03219334781170018,10.36825180053711,8.999999999999999e-08,0.0,0.0,0.0,8.999999999999999e-08,0.0,0.0,0.0,8.999999999999999e-08
650687000000,129857,633438095544181568,base_link,-0.1254477923210761,0.024623268913057453,-0.016671143781635533,-0.9916545275589354,1.0,0.0,0.0,0.0,1.0,0.0,0.0,0.0,1.0,-1.1842743158340454,0.8578948974609375,0.43573400378227223,1.2184696791468346e-07,0.0,0.0,0.0,1.2184696791468346e-07,0.0,0.0,0.0,1.2184696791468346e-07,0.19455751776695251,0.13144420087337635,11.625428199768066,8.999999999999999e-08,0.0,0.0,0.0,8.999999999999999e-08,0.0,0.0,0.0,8.999999999999999e-08
650692000000,129858,633438095548181568,base_link,-0.12277371176031757,0.022883447006527738,-0.017709052073064835,-0.9920128600649749,1.0,0.0,0.0,0.0,1.0,0.0,0.0,0.0,1.0,-1.3162720203399658,0.9496841430664062,0.44013038277626026,1.2184696791468346e-07,0.0,0.0,0.0,1.2184696791468346e-07,0.0,0.0,0.0,1.2184696791468346e-07,0.18050721287727356,0.1314414888620392,12.69838809967041,8.999999999999999e-08,0.0,0.0,0.0,8.999999999999999e-08,0.0,0.0,0.0,8.999999999999999e-08
650698000000,129859,633438095556181568,base_link,-0.1169567881213062,0.019095219773739756,-0.019816942407640148,-0.9927556982699794,1.0,0.0,0.0,0.0,1.0,0.0,0.0,0.0,1.0,-1.4314557313919067,1.030720829963684,0.439684897661209,1.2184696791468346e-07,0.0,0.0,0.0,1.2184696791468346e-07,0.0,0.0,0.0,1.2184696791468346e-07,0.20658187568187714,0.09440950304269961,13.962265014648438,8.999999999999999e-08,0.0,0.0,0.0,8.999999999999999e-08,0.0,0.0,0.0,8.999999999999999e-08
650703000000,129860,633438095560181568,base_link,-0.11388082682328413,0.01711185230308984,-0.0208608776984065,-0.9931279813828762,1.0,0.0,0.0,0.0,1.0,0.0,0.0,0.0,1.0,-1.4973857402801514,1.0697487592697144,0.4316767454147338,1.2184696791468346e-07,0.0,0.0,0.0,1.2184696791468346e-07,0.0,0.0,0.0,1.2184696791468346e-07,0.2513475716114044,0.0747916549444216,14.221308708190918,8.999999999999999e-08,0.0,0.0,0.0,8.999999999999999e-08,0.0,0.0,0.0,8.999999999999999e-08
650708000000,129861,633438095564181568,base_link,-0.11073127712776204,0.015097686022890607,-0.021881000019764174,-0.993494827552315,1.0,0.0,0.0,0.0,1.0,0.0,0.0,0.0,1.0,-1.5278435945510864,1.0803873538970947,0.41892266273498524,1.2184696791468346e-07,0.0,0.0,0.0,1.2184696791468346e-07,0.0,0.0,0.0,1.2184696791468346e-07,0.2206518054008484,0.06666114926338368,14.070735931396484,8.999999999999999e-08,0.0,0.0,0.0,8.999999999999999e-08,0.0,0.0,0.0,8.999999999999999e-08
650712000000,129862,633438095568181568,base_link,-0.10762131912805986,0.013151918809468486,-0.022863021590067978,-0.9938420332903477,1.0,0.0,0.0,0.0,1.0,0.0,0.0,0.0,1.0,-1.5389827489852905,1.0677108764648438,0.4033657908439635,1.2184696791468346e-07,0.0,0.0,0.0,1.2184696791468346e-07,0.0,0.0,0.0,1.2184696791468346e-07,0.18474332988262177,0.07882547378540207,13.719679832458496,8.999999999999999e-08,0.0,0.0,0.0,8.999999999999999e-08,0.0,0.0,0.0,8.999999999999999e-08
650717000000,129863,633438095572181568,base_link,-0.10454948295283581,0.011246412373086394,-0.023818743526901054,-0.9941708630024297,1.0,0.0,0.0,0.0,1.0,0.0,0.0,0.0,1.0,-1.510630488395691,1.0344481468200684,0.3860096037387847,1.2184696791468346e-07,0.0,0.0,0.0,1.2184696791468346e-07,0.0,0.0,0.0,1.2184696791468346e-07,0.2051374912261963,0.0678469315171258,13.282136917114258,8.999999999999999e-08,0.0,0.0,0.0,8.999999999999999e-08,0.0,0.0,0.0,8.999999999999999e-08
650721000000,129864,633438095576181568,base_link,-0.10155730432129734,0.009379733720894958,-0.02473670188746835,-0.9944778606469831,1.0,0.0,0.0,0.0,1.0,0.0,0.0,0.0,1.0,-1.4573951959609985,1.0013453960418701,0.3669674992561339,1.2184696791468346e-07,0.0,0.0,0.0,1.2184696791468346e-07,0.0,0.0,0.0,1.2184696791468346e-07,0.2072981745004654,0.1070330590009705,12.822688102722168,8.999999999999999e-08,0.0,0.0,0.0,8.999999999999999e-08,0.0,0.0,0.0,8.999999999999999e-08
650726000000,129865,633438095585181568,base_link,-0.09688474137634163,0.006407248204323203,-0.026150138599129624,-0.9949313607369603,1.0,0.0,0.0,0.0,1.0,0.0,0.0,0.0,1.0,-1.3888589143753052,0.9648311138153076,0.34554478526115406,1.2184696791468346e-07,0.0,0.0,0.0,1.2184696791468346e-07,0.0,0.0,0.0,1.2184696791468346e-07,0.1921876221895218,0.13552923500538022,12.227980613708496,8.999999999999999e-08,0.0,0.0,0.0,8.999999999999999e-08,0.0,0.0,0.0,8.999999999999999e-08
650730000000,129866,633438095591181568,base_link,-0.09157537116052272,0.0030512579764386902,-0.027751887429937616,-0.9954067771881632,1.0,0.0,0.0,0.0,1.0,0.0,0.0,0.0,1.0,-1.297519564628601,0.903164803981781,0.3200739324092864,1.2184696791468346e-07,0.0,0.0,0.0,1.2184696791468346e-07,0.0,0.0,0.0,1.2184696791468346e-07,0.2026015818119049,0.13279111683368824,11.45889663696289,8.999999999999999e-08,0.0,0.0,0.0,8.999999999999999e-08,0.0,0.0,0.0,8.999999999999999e-08
650735000000,129867,633438095595181568,base_link,-0.08914161983250736,0.0015530033663272037,-0.02847605458105179,-0.9956106836412588,1.0,0.0,0.0,0.0,1.0,0.0,0.0,0.0,1.0,-1.2036802768707275,0.8254133462905884,0.29522356390953053,1.2184696791468346e-07,0.0,0.0,0.0,1.2184696791468346e-07,0.0,0.0,0.0,1.2184696791468346e-07,0.16017740964889526,0.12295997887849944,11.1100435256958,8.999999999999999e-08,0.0,0.0,0.0,8.999999999999999e-08,0.0,0.0,0.0,8.999999999999999e-08
650740000000,129868,633438095599181568,base_link,-0.08698195209453638,0.00027967331582819983,-0.02910682431586592,-0.9957845815382149,1.0,0.0,0.0,0.0,1.0,0.0,0.0,0.0,1.0,-1.105369210243225,0.7287430167198181,0.2673676908016204,1.2184696791468346e-07,0.0,0.0,0.0,1.2184696791468346e-07,0.0,0.0,0.0,1.2184696791468346e-07,0.20925723016262054,0.08472497016191614,10.810537338256836,8.999999999999999e-08,0.0,0.0,0.0,8.999999999999999e-08,0.0,0.0,0.0,8.999999999999999e-08
650744000000,129869,633438095603181568,base_link,-0.08489610456173224,-0.0008879102917569627,-0.029707079732358088,-0.9959465097301938,1.0,0.0,0.0,0.0,1.0,0.0,0.0,0.0,1.0,-1.021430253982544,0.6422621011734009,0.24614129960536948,1.2184696791468346e-07,0.0,0.0,0.0,1.2184696791468346e-07,0.0,0.0,0.0,1.2184696791468346e-07,0.15829963982105255,0.12015371769666801,10.58551025390625,8.999999999999999e-08,0.0,0.0,0.0,8.999999999999999e-08,0.0,0.0,0.0,8.999999999999999e-08
650749000000,129870,633438095607181568,base_link,-0.08306368076066803,-0.001850354650927482,-0.030237160646079564,-0.9960836977220967,1.0,0.0,0.0,0.0,1.0,0.0,0.0,0.0,1.0,-0.9098805785179138,0.5296521186828613,0.2190742045640945,1.2184696791468346e-07,0.0,0.0,0.0,1.2184696791468346e-07,0.0,0.0,0.0,1.2184696791468346e-07,0.19587500393390656,0.06250921636819967,10.437248229980469,8.999999999999999e-08,0.0,0.0,0.0,8.999999999999999e-08,0.0,0.0,0.0,8.999999999999999e-08
650754000000,129871,633438095615181568,base_link,-0.07986983999571706,-0.0032456366075927622,-0.031090255006788636,-0.99631512606727,1.0,0.0,0.0,0.0,1.0,0.0,0.0,0.0,1.0,-0.8058363199234009,0.41134390234947205,0.18741543591022486,1.2184696791468346e-07,0.0,0.0,0.0,1.2184696791468346e-07,0.0,0.0,0.0,1.2184696791468346e-07,0.21331703662872314,0.14109741151332983,10.438244819641113,8.999999999999999e-08,0.0,0.0,0.0,8.999999999999999e-08,0.0,0.0,0.0,8.999999999999999e-08
650760000000,129872,633438095619087360,base_link,-0.07847449481877902,-0.0036574850745290915,-0.0314128048384425,-0.9964143818955131,1.0,0.0,0.0,0.0,1.0,0.0,0.0,0.0,1.0,-0.6978616714477539,0.2587892413139343,0.1456891298294067,1.2184696791468346e-07,0.0,0.0,0.0,1.2184696791468346e-07,0.0,0.0,0.0,1.2184696791468346e-07,0.2048114538192749,0.15389770269394049,10.336899757385254,8.999999999999999e-08,0.0,0.0,0.0,8.999999999999999e-08,0.0,0.0,0.0,8.999999999999999e-08
650765000000,129873,633438095623087360,base_link,-0.07721567645505792,-0.0038504992014627617,-0.03166496943308311,-0.9965040282422959,1.0,0.0,0.0,0.0,1.0,0.0,0.0,0.0,1.0,-0.6329307556152344,0.12602657079696655,0.11295202374458312,1.2184696791468346e-07,0.0,0.0,0.0,1.2184696791468346e-07,0.0,0.0,0.0,1.2184696791468346e-07,0.17780464887619019,0.17663870751857882,10.18319034576416,8.999999999999999e-08,0.0,0.0,0.0,8.999999999999999e-08,0.0,0.0,0.0,8.999999999999999e-08
650769000000,129874,633438095627087360,base_link,-0.07601512610940314,-0.0038491689415566365,-0.03183895162373612,-0.9965908507502282,1.0,0.0,0.0,0.0,1.0,0.0,0.0,0.0,1.0,-0.5985032320022583,0.01939430832862855,0.08248559385538101,1.2184696791468346e-07,0.0,0.0,0.0,1.2184696791468346e-07,0.0,0.0,0.0,1.2184696791468346e-07,0.208964005112648,0.12718416750431183,10.008641242980957,8.999999999999999e-08,0.0,0.0,0.0,8.999999999999999e-08,0.0,0.0,0.0,8.999999999999999e-08
650774000000,129875,633438095635087360,base_link,-0.07373577185837335,-0.0031976471522070483,-0.03196589793145088,-0.9967602810812421,1.0,0.0,0.0,0.0,1.0,0.0,0.0,0.0,1.0,-0.5727922916412354,-0.11767163872718811,0.04694352298974992,1.2184696791468346e-07,0.0,0.0,0.0,1.2184696791468346e-07,0.0,0.0,0.0,1.2184696791468346e-07,0.20948946475982666,0.11753503978252532,9.880292892456055,8.999999999999999e-08,0.0,0.0,0.0,8.999999999999999e-08,0.0,0.0,0.0,8.999999999999999e-08
650779000000,129876,633438095639087360,base_link,-0.07262892449367042,-0.002543335768321641,-0.031923961817182545,-0.9968447855125064,1.0,0.0,0.0,0.0,1.0,0.0,0.0,0.0,1.0,-0.5611929893493652,-0.2563515603542328,0.012617150321602853,1.2184696791468346e-07,0.0,0.0,0.0,1.2184696791468346e-07,0.0,0.0,0.0,1.2184696791468346e-07,0.2474757730960846,0.1460229307413113,9.743507385253906,8.999999999999999e-08,0.0,0.0,0.0,8.999999999999999e-08,0.0,0.0,0.0,8.999999999999999e-08
650784000000,129877,633438095643087360,base_link,-0.07151657959941485,-0.001692654314689885,-0.0318093223892329,-0.9969305964960746,1.0,0.0,0.0,0.0,1.0,0.0,0.0,0.0,1.0,-0.5668713450431824,-0.38825902342796326,-0.022176671773195218,1.2184696791468346e-07,0.0,0.0,0.0,1.2184696791468346e-07,0.0,0.0,0.0,1.2184696791468346e-07,0.22748589515686035,0.1269671618938458,9.699137687683105,8.999999999999999e-08,0.0,0.0,0.0,8.999999999999999e-08,0.0,0.0,0.0,8.999999999999999e-08
650788000000,129878,633438095647087360,base_link,-0.0703508715265884,-0.0006460005521945944,-0.03162981896142497,-0.9970205800176453,1.0,0.0,0.0,0.0,1.0,0.0,0.0,0.0,1.0,-0.5896501541137695,-0.48958441615104675,-0.04930841177701944,1.2184696791468346e-07,0.0,0.0,0.0,1.2184696791468346e-07,0.0,0.0,0.0,1.2184696791468346e-07,0.24575300514698029,0.14740498363971827,9.524995803833008,8.999999999999999e-08,0.0,0.0,0.0,8.999999999999999e-08,0.0,0.0,0.0,8.999999999999999e-08
650795000000,129879,633438095655087360,base_link,-0.06779247879663616,0.0020257619318958687,-0.031050173353854738,-0.9972140761991588,1.0,0.0,0.0,0.0,1.0,0.0,0.0,0.0,1.0,-0.6583119034767151,-0.6592570543289185,-0.09870125353336326,1.2184696791468346e-07,0.0,0.0,0.0,1.2184696791468346e-07,0.0,0.0,0.0,1.2184696791468346e-07,0.23408730328083038,0.16154141724109766,9.484450340270996,8.999999999999999e-08,0.0,0.0,0.0,8.999999999999999e-08,0.0,0.0,0.0,8.999999999999999e-08
650799000000,129880,633438095659087360,base_link,-0.0663263901344726,0.003629986890053909,-0.030667100647739143,-0.9973199912294668,1.0,0.0,0.0,0.0,1.0,0.0,0.0,0.0,1.0,-0.7182478308677673,-0.7471888065338135,-0.12419447302818289,1.2184696791468346e-07,0.0,0.0,0.0,1.2184696791468346e-07,0.0,0.0,0.0,1.2184696791468346e-07,0.22111767530441284,0.1484165638685238,9.55606746673584,8.999999999999999e-08,0.0,0.0,0.0,8.999999999999999e-08,0.0,0.0,0.0,8.999999999999999e-08
650804000000,129881,633438095663087360,base_link,-0.06473787277991896,0.0053624568056964955,-0.030234842569411502,-0.9974297416229891,1.0,0.0,0.0,0.0,1.0,0.0,0.0,0.0,1.0,-0.8087405562400818,-0.8436954617500305,-0.15312691032886494,1.2184696791468346e-07,0.0,0.0,0.0,1.2184696791468346e-07,0.0,0.0,0.0,1.2184696791468346e-07,0.25170743465423584,0.1446661651134503,9.653606414794922,8.999999999999999e-08,0.0,0.0,0.0,8.999999999999999e-08,0.0,0.0,0.0,8.999999999999999e-08
650809000000,129882,633438095667087360,base_link,-0.06295843283578903,0.0072358315384450905,-0.029738774162438253,-0.9975467412744554,1.0,0.0,0.0,0.0,1.0,0.0,0.0,0.0,1.0,-0.9208658933639526,-0.9249647855758667,-0.1838475614786147,1.2184696791468346e-07,0.0,0.0,0.0,1.2184696791468346e-07,0.0,0.0,0.0,1.2184696791468346e-07,0.2592065930366516,0.12586642801761747,9.80150032043457,8.999999999999999e-08,0.0,0.0,0.0,8.999999999999999e-08,0.0,0.0,0.0,8.999999999999999e-08
650813000000,129883,633438095671087360,base_link,-0.06097944600320621,0.009210493050699467,-0.02918053915391139,-0.9976698522189557,1.0,0.0,0.0,0.0,1.0,0.0,0.0,0.0,1.0,-1.0187796354293823,-0.9738478660583496,-0.21062926948070515,1.2184696791468346e-07,0.0,0.0,0.0,1.2184696791468346e-07,0.0,0.0,0.0,1.2184696791468346e-07,0.27417948842048645,0.10456363856792572,9.998152732849121,8.999999999999999e-08,0.0,0.0,0.0,8.999999999999999e-08,0.0,0.0,0.0,8.999999999999999e-08
650820000000,129884,633438095679087360,base_link,-0.05641342634001901,0.0133736362573271,-0.02787466119964993,-0.9979287181625096,1.0,0.0,0.0,0.0,1.0,0.0,0.0,0.0,1.0,-1.2009512186050415,-1.0297019481658936,-0.2601380646228789,1.2184696791468346e-07,0.0,0.0,0.0,1.2184696791468346e-07,0.0,0.0,0.0,1.2184696791468346e-07,0.2446521669626236,0.12977203726768624,10.653464317321777,8.999999999999999e-08,0.0,0.0,0.0,8.999999999999999e-08,0.0,0.0,0.0,8.999999999999999e-08
650824000000,129885,633438095683087360,base_link,-0.05380128584150327,0.015499391587314995,-0.027132075875736517,-0.9980627029939257,1.0,0.0,0.0,0.0,1.0,0.0,0.0,0.0,1.0,-1.3097971677780151,-1.04139244556427,-0.28774940967559803,1.2184696791468346e-07,0.0,0.0,0.0,1.2184696791468346e-07,0.0,0.0,0.0,1.2184696791468346e-07,0.22630099952220917,0.15562631189823284,10.942291259765625,8.999999999999999e-08,0.0,0.0,0.0,8.999999999999999e-08,0.0,0.0,0.0,8.999999999999999e-08
650829000000,129886,633438095687087360,base_link,-0.0509346587204117,0.017646698444871135,-0.026322055594205584,-0.9981991323425555,1.0,0.0,0.0,0.0,1.0,0.0,0.0,0.0,1.0,-1.4491925239562988,-1.0366432666778564,-0.3220320940017699,1.2184696791468346e-07,0.0,0.0,0.0,1.2184696791468346e-07,0.0,0.0,0.0,1.2184696791468346e-07,0.2459547519683838,0.11932019889354843,11.172348976135254,8.999999999999999e-08,0.0,0.0,0.0,8.999999999999999e-08,0.0,0.0,0.0,8.999999999999999e-08
650834000000,129887,633438095695087360,base_link,-0.04456903843152717,0.02176677152358767,-0.02453802164358798,-0.9984677342081154,1.0,0.0,0.0,0.0,1.0,0.0,0.0,0.0,1.0,-1.5866833925247192,-1.0074207782745361,-0.35651201009750355,1.2184696791468346e-07,0.0,0.0,0.0,1.2184696791468346e-07,0.0,0.0,0.0,1.2184696791468346e-07,0.22728896141052246,0.13268397748470445,11.31594181060791,8.999999999999999e-08,0.0,0.0,0.0,8.999999999999999e-08,0.0,0.0,0.0,8.999999999999999e-08
650839000000,129888,633438095699087360,base_link,-0.041002718307416086,0.023719304623284813,-0.023558360296800696,-0.9985996538439545,1.0,0.0,0.0,0.0,1.0,0.0,0.0,0.0,1.0,-1.7188934087753296,-0.9527629017829895,-0.3867685794830321,1.2184696791468346e-07,0.0,0.0,0.0,1.2184696791468346e-07,0.0,0.0,0.0,1.2184696791468346e-07,0.24527084827423096,0.1154380217194571,11.342731475830078,8.999999999999999e-08,0.0,0.0,0.0,8.999999999999999e-08,0.0,0.0,0.0,8.999999999999999e-08
650843000000,129889,633438095703087360,base_link,-0.03739868136369932,0.025438244742010896,-0.02257334630025265,-0.9987215846766965,1.0,0.0,0.0,0.0,1.0,0.0,0.0,0.0,1.0,-1.816304087638855,-0.885899007320404,-0.41009747982025135,1.2184696791468346e-07,0.0,0.0,0.0,1.2184696791468346e-07,0.0,0.0,0.0,1.2184696791468346e-07,0.26400628685951233,0.15896296501159807,11.366825103759766,8.999999999999999e-08,0.0,0.0,0.0,8.999999999999999e-08,0.0,0.0,0.0,8.999999999999999e-08
650848000000,129890,633438095707087360,base_link,-0.033558536457535496,0.027014113432199695,-0.021531476205063294,-0.998839595852527,1.0,0.0,0.0,0.0,1.0,0.0,0.0,0.0,1.0,-1.9224684238433838,-0.779655933380127,-0.4364594519138335,1.2184696791468346e-07,0.0,0.0,0.0,1.2184696791468346e-07,0.0,0.0,0.0,1.2184696791468346e-07,0.2421301156282425,0.11812960356474063,11.3991117477417,8.999999999999999e-08,0.0,0.0,0.0,8.999999999999999e-08,0.0,0.0,0.0,8.999999999999999e-08
650855000000,129891,633438095715087360,base_link,-0.025508229748599228,0.029550906396198468,-0.019353411367717396,-0.9990503300950815,1.0,0.0,0.0,0.0,1.0,0.0,0.0,0.0,1.0,-2.025531530380249,-0.6300114393234254,-0.46377202868461603,1.2184696791468346e-07,0.0,0.0,0.0,1.2184696791468346e-07,0.0,0.0,0.0,1.2184696791468346e-07,0.22071918845176697,0.14446297287941118,11.307967185974121,8.999999999999999e-08,0.0,0.0,0.0,8.999999999999999e-08,0.0,0.0,0.0,8.999999999999999e-08
650859000000,129892,633438095719087360,base_link,-0.021353280317376048,0.030487533011841907,-0.01822176848519985,-0.9991409458193798,1.0,0.0,0.0,0.0,1.0,0.0,0.0,0.0,1.0,-2.087125778198242,-0.4934515058994294,-0.48430961370468134,1.2184696791468346e-07,0.0,0.0,0.0,1.2184696791468346e-07,0.0,0.0,0.0,1.2184696791468346e-07,0.23725542426109314,0.07244618982076782,11.196005821228027,8.999999999999999e-08,0.0,0.0,0.0,8.999999999999999e-08,0.0,0.0,0.0,8.999999999999999e-08
650864000000,129893,633438095722990080,base_link,-0.017153597439450746,0.031174650119664728,-0.017071918164125673,-0.9992209405378536,1.0,0.0,0.0,0.0,1.0,0.0,0.0,0.0,1.0,-2.1270439624786377,-0.34446907043457037,-0.5023024082183838,1.2184696791468346e-07,0.0,0.0,0.0,1.2184696791468346e-07,0.0,0.0,0.0,1.2184696791468346e-07,0.1869383156299591,0.12535627186298506,11.102364540100098,8.999999999999999e-08,0.0,0.0,0.0,8.999999999999999e-08,0.0,0.0,0.0,8.999999999999999e-08
650868000000,129894,633438095726990080,base_link,-0.012899577724899537,0.03159936522919802,-0.015902258824251333,-0.9992909043063818,1.0,0.0,0.0,0.0,1.0,0.0,0.0,0.0,1.0,-2.1456005573272705,-0.21408115327358251,-0.5124408602714539,1.2184696791468346e-07,0.0,0.0,0.0,1.2184696791468346e-07,0.0,0.0,0.0,1.2184696791468346e-07,0.2147822380065918,0.1480989605188383,10.910473823547363,8.999999999999999e-08,0.0,0.0,0.0,8.999999999999999e-08,0.0,0.0,0.0,8.999999999999999e-08
650873000000,129895,633438095730990080,base_link,-0.008597889924682502,0.03175668756088804,-0.014714855661153823,-0.9993503735096305,1.0,0.0,0.0,0.0,1.0,0.0,0.0,0.0,1.0,-2.152019739151001,-0.04428098723292357,-0.5210191607475281,1.2184696791468346e-07,0.0,0.0,0.0,1.2184696791468346e-07,0.0,0.0,0.0,1.2184696791468346e-07,0.2078414261341095,0.1088578924536718,10.657130241394043,8.999999999999999e-08,0.0,0.0,0.0,8.999999999999999e-08,0.0,0.0,0.0,8.999999999999999e-08
650879000000,129896,633438095738990080,base_link,-0.00015114255002704767,0.03122557404937801,-0.012333432279742871,-0.9994363109337443,1.0,0.0,0.0,0.0,1.0,0.0,0.0,0.0,1.0,-2.126178026199341,0.16383384168148035,-0.5285332798957825,1.2184696791468346e-07,0.0,0.0,0.0,1.2184696791468346e-07,0.0,0.0,0.0,1.2184696791468346e-07,0.16847151517868042,0.11677560955286151,10.195645332336426,8.999999999999999e-08,0.0,0.0,0.0,8.999999999999999e-08,0.0,0.0,0.0,8.999999999999999e-08
650884000000,129897,633438095742990080,base_link,0.003942262110294226,0.03054363804047175,-0.011135787432457299,-0.9994637063852764,1.0,0.0,0.0,0.0,1.0,0.0,0.0,0.0,1.0,-2.0677473545074463,0.3375743925571441,-0.5312665700912476,1.2184696791468346e-07,0.0,0.0,0.0,1.2184696791468346e-07,0.0,0.0,0.0,1.2184696791468346e-07,0.1986849009990692,0.1678946614265454,10.060422897338867,8.999999999999999e-08,0.0,0.0,0.0,8.999999999999999e-08,0.0,0.0,0.0,8.999999999999999e-08
650889000000,129898,633438095746990080,base_link,0.007893149836553941,0.02957925229209169,-0.009950070143300236,-0.9994817873832875,1.0,0.0,0.0,0.0,1.0,0.0,0.0,0.0,1.0,-1.9723381996154785,0.5093519091606139,-0.5256475806236268,1.2184696791468346e-07,0.0,0.0,0.0,1.2184696791468346e-07,0.0,0.0,0.0,1.2184696791468346e-07,0.17819979786872864,0.08818051218986632,9.850205421447754,8.999999999999999e-08,0.0,0.0,0.0,8.999999999999999e-08,0.0,0.0,0.0,8.999999999999999e-08
650893000000,129899,633438095750990080,base_link,0.011647210463178764,0.028346013114149665,-0.008790947515553703,-0.999491734039536,1.0,0.0,0.0,0.0,1.0,0.0,0.0,0.0,1.0,-1.8812981843948364,0.6417671442031859,-0.5203740000724794,1.2184696791468346e-07,0.0,0.0,0.0,1.2184696791468346e-07,0.0,0.0,0.0,1.2184696791468346e-07,0.2004852592945099,0.08243823796510817,9.855365753173828,8.999999999999999e-08,0.0,0.0,0.0,8.999999999999999e-08,0.0,0.0,0.0,8.999999999999999e-08
650900000000,129900,633438095758990080,base_link,0.01855550336604969,0.025177283639104826,-0.00649689455110569,-0.9994896266971105,1.0,0.0,0.0,0.0,1.0,0.0,0.0,0.0,1.0,-1.7052302360534668,0.8479286432266234,-0.5102123618125917,1.2184696791468346e-07,0.0,0.0,0.0,1.2184696791468346e-07,0.0,0.0,0.0,1.2184696791468346e-07,0.20567336678504944,0.13470982015133023,9.844307899475098,8.999999999999999e-08,0.0,0.0,0.0,8.999999999999999e-08,0.0,0.0,0.0,8.999999999999999e-08
650904000000,129901,633438095762990080,base_link,0.021703627148075874,0.023266738843328288,-0.005389865428118644,-0.9994791742786798,1.0,0.0,0.0,0.0,1.0,0.0,0.0,0.0,1.0,-1.5912426710128784,0.9478748440742492,-0.4970702826976777,1.2184696791468346e-07,0.0,0.0,0.0,1.2184696791468346e-07,0.0,0.0,0.0,1.2184696791468346e-07,0.18325012922286987,0.14600759744644287,9.990884780883789,8.999999999999999e-08,0.0,0.0,0.0,8.999999999999999e-08,0.0,0.0,0.0,8.999999999999999e-08
650909000000,129902,633438095766990080,base_link,0.024543147424765988,0.021232476254287317,-0.004328186314129178,-0.9994639171195188,1.0,0.0,0.0,0.0,1.0,0.0,0.0,0.0,1.0,-1.4328830242156982,1.0507029294967651,-0.47772663831710827,1.2184696791468346e-07,0.0,0.0,0.0,1.2184696791468346e-07,0.0,0.0,0.0,1.2184696791468346e-07,0.1805119812488556,0.08789567649364596,10.233561515808105,8.999999999999999e-08,0.0,0.0,0.0,8.999999999999999e-08,0.0,0.0,0.0,8.999999999999999e-08
650914000000,129903,633438095774990080,base_link,0.029440589160490853,0.016723934026484595,-0.0023074556622743594,-0.9994240040539791,1.0,0.0,0.0,0.0,1.0,0.0,0.0,0.0,1.0,-1.258865475654602,1.1331745386123657,-0.4544157087802888,1.2184696791468346e-07,0.0,0.0,0.0,1.2184696791468346e-07,0.0,0.0,0.0,1.2184696791468346e-07,0.19617733359336853,0.1412767320871366,10.330299377441406,8.999999999999999e-08,0.0,0.0,0.0,8.999999999999999e-08,0.0,0.0,0.0,8.999999999999999e-08
650918000000,129904,633438095778990080,base_link,0.03144053548912923,0.014314841897570655,-0.001376811100305241,-0.999402214133299,1.0,0.0,0.0,0.0,1.0,0.0,0.0,0.0,1.0,-1.1134339570999146,1.1897056102752686,-0.432345896959305,1.2184696791468346e-07,0.0,0.0,0.0,1.2184696791468346e-07,0.0,0.0,0.0,1.2184696791468346e-07,0.16247805953025818,0.10862216353416569,10.301823616027832,8.999999999999999e-08,0.0,0.0,0.0,8.999999999999999e-08,0.0,0.0,0.0,8.999999999999999e-08
650925000000,129905,633438095782990080,base_link,0.033129403172898274,0.011810975335790383,-0.0004898728202420425,-0.9993812250027405,1.0,0.0,0.0,0.0,1.0,0.0,0.0,0.0,1.0,-0.8828335404396057,1.2579395771026611,-0.39511013031005876,1.2184696791468346e-07,0.0,0.0,0.0,1.2184696791468346e-07,0.0,0.0,0.0,1.2184696791468346e-07,0.2524981200695038,0.139728516340257,10.229780197143555,8.999999999999999e-08,0.0,0.0,0.0,8.999999999999999e-08,0.0,0.0,0.0,8.999999999999999e-08
650929000000,129906,633438095786990080,base_link,0.03451780663217767,0.009250159820593289,0.0003366690259051236,-0.9993612895433949,1.0,0.0,0.0,0.0,1.0,0.0,0.0,0.0,1.0,-0.6903894543647766,1.2955702543258667,-0.3618500232696535,1.2184696791468346e-07,0.0,0.0,0.0,1.2184696791468346e-07,0.0,0.0,0.0,1.2184696791468346e-07,0.18045029044151306,0.14086674153804904,10.171142578125,8.999999999999999e-08,0.0,0.0,0.0,8.999999999999999e-08,0.0,0.0,0.0,8.999999999999999e-08
650934000000,129907,633438095794990080,base_link,0.03639780632267658,0.004085653591462374,0.0018370546860443928,-0.9993273613303437,1.0,0.0,0.0,0.0,1.0,0.0,0.0,0.0,1.0,-0.5022881031036377,1.305562138557434,-0.3295164406299593,1.2184696791468346e-07,0.0,0.0,0.0,1.2184696791468346e-07,0.0,0.0,0.0,1.2184696791468346e-07,0.2137918770313263,0.151580870151521,10.003795623779297,8.999999999999999e-08,0.0,0.0,0.0,8.999999999999999e-08,0.0,0.0,0.0,8.999999999999999e-08
650939000000,129908,633438095798990080,base_link,0.036923589574939,0.0015610955612412878,0.0024995188509386312,-0.9993137900451232,1.0,0.0,0.0,0.0,1.0,0.0,0.0,0.0,1.0,-0.32564234733581543,1.2870451211929321,-0.29594257473945634,1.2184696791468346e-07,0.0,0.0,0.0,1.2184696791468346e-07,0.0,0.0,0.0,1.2184696791468346e-07,0.22309201955795288,0.14342838525772214,9.851399421691895,8.999999999999999e-08,0.0,0.0,0.0,8.999999999999999e-08,0.0,0.0,0.0,8.999999999999999e-08
650943000000,129909,633438095802990080,base_link,0.03720792406879463,-0.0008804805926179162,0.0031088779867091687,-0.9993024103960251,1.0,0.0,0.0,0.0,1.0,0.0,0.0,0.0,1.0,-0.19807711243629456,1.253648281097412,-0.26983579993248,1.2184696791468346e-07,0.0,0.0,0.0,1.2184696791468346e-07,0.0,0.0,0.0,1.2184696791468346e-07,0.22010549902915955,0.16587863862514615,9.826299667358398,8.999999999999999e-08,0.0,0.0,0.0,8.999999999999999e-08,0.0,0.0,0.0,8.999999999999999e-08
650950000000,129910,633438095810990080,base_link,0.03716466559715426,-0.005479776509793484,0.00416726964651476,-0.9992854673629238,1.0,0.0,0.0,0.0,1.0,0.0,0.0,0.0,1.0,-0.00834826473146677,1.1749080419540405,-0.2265224009752275,1.2184696791468346e-07,0.0,0.0,0.0,1.2184696791468346e-07,0.0,0.0,0.0,1.2184696791468346e-07,0.18261253833770752,0.14536480605602384,9.813882827758789,8.999999999999999e-08,0.0,0.0,0.0,8.999999999999999e-08,0.0,0.0,0.0,8.999999999999999e-08
650954000000,129911,633438095814990080,base_link,0.036892752569808195,-0.007613645108119727,0.004615037765094475,-0.9992795668041322,1.0,0.0,0.0,0.0,1.0,0.0,0.0,0.0,1.0,0.08082200586795807,1.1193081140518188,-0.19981279969215407,1.2184696791468346e-07,0.0,0.0,0.0,1.2184696791468346e-07,0.0,0.0,0.0,1.2184696791468346e-07,0.18512776494026184,0.13012659549713254,9.701009750366211,8.999999999999999e-08,0.0,0.0,0.0,8.999999999999999e-08,0.0,0.0,0.0,8.999999999999999e-08
650959000000,129912,633438095818990080,base_link,0.03649740854533093,-0.00960758748647882,0.005001440072242346,-0.99927509923819,1.0,0.0,0.0,0.0,1.0,0.0,0.0,0.0,1.0,0.17022103071212769,1.0399234294891357,-0.16735748946666731,1.2184696791468346e-07,0.0,0.0,0.0,1.2184696791468346e-07,0.0,0.0,0.0,1.2184696791468346e-07,0.24501577019691467,0.08525375276804088,9.622761726379395,8.999999999999999e-08,0.0,0.0,0.0,8.999999999999999e-08,0.0,0.0,0.0,8.999999999999999e-08
650964000000,129913,633438095822893824,base_link,0.035993823511343594,-0.01147560298402146,0.005324495666078343,-0.9992719382245517,1.0,0.0,0.0,0.0,1.0,0.0,0.0,0.0,1.0,0.23869045078754425,0.9514068961143494,-0.1306084543466569,1.2184696791468346e-07,0.0,0.0,0.0,1.2184696791468346e-07,0.0,0.0,0.0,1.2184696791468346e-07,0.15950638055801392,0.10868551582098125,9.669698715209961,8.999999999999999e-08,0.0,0.0,0.0,8.999999999999999e-08,0.0,0.0,0.0,8.999999999999999e-08
650968000000,129914,633438095826893824,base_link,0.03542322893949098,-0.013176481202527098,0.005587365560240753,-0.9992699573226718,1.0,0.0,0.0,0.0,1.0,0.0,0.0,0.0,1.0,0.2753989100456238,0.8702729940414429,-0.101221762597561,1.2184696791468346e-07,0.0,0.0,0.0,1.2184696791468346e-07,0.0,0.0,0.0,1.2184696791468346e-07,0.2113834023475647,0.1040010005235684,9.689055442810059,8.999999999999999e-08,0.0,0.0,0.0,8.999999999999999e-08,0.0,0.0,0.0,8.999999999999999e-08
650973000000,129915,633438095830893824,base_link,0.0348186725688172,-0.014707035445121612,0.00577744784702494,-0.9992687772109135,1.0,0.0,0.0,0.0,1.0,0.0,0.0,0.0,1.0,0.2982858121395111,0.7573302984237671,-0.06215971335768709,1.2184696791468346e-07,0.0,0.0,0.0,1.2184696791468346e-07,0.0,0.0,0.0,1.2184696791468346e-07,0.21521013975143433,0.11095012724399686,9.78276252746582,8.999999999999999e-08,0.0,0.0,0.0,8.999999999999999e-08,0.0,0.0,0.0,8.999999999999999e-08
650979000000,129916,633438095838893824,base_link,0.033664450170754485,-0.017109705447993704,0.005964579854413287,-0.9992689457983075,1.0,0.0,0.0,0.0,1.0,0.0,0.0,0.0,1.0,0.29052379727363586,0.6041214466094971,-0.019712703302502705,1.2184696791468346e-07,0.0,0.0,0.0,1.2184696791468346e-07,0.0,0.0,0.0,1.2184696791468346e-07,0.21105551719665527,0.1238173320889485,9.885640144348145,8.999999999999999e-08,0.0,0.0,0.0,8.999999999999999e-08,0.0,0.0,0.0,8.999999999999999e-08
650984000000,129917,633438095842893824,base_link,0.03317020066371231,-0.017992090551328766,0.005966012847262669,-0.9992699573226718,1.0,0.0,0.0,0.0,1.0,0.0,0.0,0.0,1.0,0.25560835003852844,0.46711301803588867,0.01316174026578659,1.2184696791468346e-07,0.0,0.0,0.0,1.2184696791468346e-07,0.0,0.0,0.0,1.2184696791468346e-07,0.19263017177581787,0.11657105386257291,9.8008451461792,8.999999999999999e-08,0.0,0.0,0.0,8.999999999999999e-08,0.0,0.0,0.0,8.999999999999999e-08
650989000000,129918,633438095846893824,base_link,0.03275414080464743,-0.018667685435167666,0.005910842622561917,-0.9992716010497636,1.0,0.0,0.0,0.0,1.0,0.0,0.0,0.0,1.0,0.20375075936317444,0.3293534517288208,0.04469540342688556,1.2184696791468346e-07,0.0,0.0,0.0,1.2184696791468346e-07,0.0,0.0,0.0,1.2184696791468346e-07,0.23634114861488342,0.09971628338098645,9.695823669433594,8.999999999999999e-08,0.0,0.0,0.0,8.999999999999999e-08,0.0,0.0,0.0,8.999999999999999e-08
650994000000,129919,633438095854893824,base_link,0.03224913068034482,-0.019331589178356347,0.005642240757001925,-0.9992770379932217,1.0,0.0,0.0,0.0,1.0,0.0,0.0,0.0,1.0,0.13734635710716248,0.18799589574337006,0.07124187797307965,1.2184696791468346e-07,0.0,0.0,0.0,1.2184696791468346e-07,0.0,0.0,0.0,1.2184696791468346e-07,0.23398229479789734,0.08440297096967815,9.606782913208008,8.999999999999999e-08,0.0,0.0,0.0,8.999999999999999e-08,0.0,0.0,0.0,8.999999999999999e-08
650998000000,129920,633438095858893824,base_link,0.032182066483285386,-0.0193180475276387,0.005424004375412571,-0.9992806626221935,1.0,0.0,0.0,0.0,1.0,0.0,0.0,0.0,1.0,0.07872309535741806,0.07319969683885576,0.09355685859918593,1.2184696791468346e-07,0.0,0.0,0.0,1.2184696791468346e-07,0.0,0.0,0.0,1.2184696791468346e-07,0.23922386765480042,0.09582841396331905,9.67371654510498,8.999999999999999e-08,0.0,0.0,0.0,8.999999999999999e-08,0.0,0.0,0.0,8.999999999999999e-08
651003000000,129921,633438095862893824,base_link,0.03227081259972565,-0.01908099718800073,0.005159870075794825,-0.9992837393421348,1.0,0.0,0.0,0.0,1.0,0.0,0.0,0.0,1.0,-0.00841524824500084,-0.07005893439054488,0.11977541446685792,1.2184696791468346e-07,0.0,0.0,0.0,1.2184696791468346e-07,0.0,0.0,0.0,1.2184696791468346e-07,0.1987605094909668,0.08853767812252164,9.786188125610352,8.999999999999999e-08,0.0,0.0,0.0,8.999999999999999e-08,0.0,0.0,0.0,8.999999999999999e-08
651009000000,129922,633438095866893824,base_link,0.03249642072853741,-0.018627321925184386,0.004829775958257398,-0.9992866053278335,1.0,0.0,0.0,0.0,1.0,0.0,0.0,0.0,1.0,-0.11948229372501373,-0.23710831999778745,0.1565094590187073,1.2184696791468346e-07,0.0,0.0,0.0,1.2184696791468346e-07,0.0,0.0,0.0,1.2184696791468346e-07,0.22196358442306519,0.08612329512834672,10.046104431152344,8.999999999999999e-08,0.0,0.0,0.0,8.999999999999999e-08,0.0,0.0,0.0,8.999999999999999e-08
651014000000,129923,633438095874893824,base_link,0.03340561386170343,-0.01711457011627417,0.004004034902232,-0.9992873639711068,1.0,0.0,0.0,0.0,1.0,0.0,0.0,0.0,1.0,-0.21241329610347748,-0.3654099404811859,0.1861840188503266,1.2184696791468346e-07,0.0,0.0,0.0,1.2184696791468346e-07,0.0,0.0,0.0,1.2184696791468346e-07,0.19439759850502014,0.06970583647489678,10.630144119262695,8.999999999999999e-08,0.0,0.0,0.0,8.999999999999999e-08,0.0,0.0,0.0,8.999999999999999e-08
651019000000,129924,633438095878893824,base_link,0.03408557094436321,-0.016052694097476863,0.0035063649150154355,-0.9992839079295288,1.0,0.0,0.0,0.0,1.0,0.0,0.0,0.0,1.0,-0.3058644235134125,-0.49139970541000366,0.21504037082195288,1.2184696791468346e-07,0.0,0.0,0.0,1.2184696791468346e-07,0.0,0.0,0.0,1.2184696791468346e-07,0.2013046145439148,0.0752141103148474,11.07605266571045,8.999999999999999e-08,0.0,0.0,0.0,8.999999999999999e-08,0.0,0.0,0.0,8.999999999999999e-08
651024000000,129925,633438095882893824,base_link,0.03491906175215859,-0.014797798024845312,0.0029451374802443855,-0.9992763214967969,1.0,0.0,0.0,0.0,1.0,0.0,0.0,0.0,1.0,-0.39783671498298645,-0.6140602827072144,0.24569909274578103,1.2184696791468346e-07,0.0,0.0,0.0,1.2184696791468346e-07,0.0,0.0,0.0,1.2184696791468346e-07,0.22050786018371582,0.10936916619539401,11.436595916748047,8.999999999999999e-08,0.0,0.0,0.0,8.999999999999999e-08,0.0,0.0,0.0,8.999999999999999e-08
651028000000,129926,633438095886893824,base_link,0.035861801142561246,-0.013372287558174616,0.0023367477219895507,-0.9992645625260624,1.0,0.0,0.0,0.0,1.0,0.0,0.0,0.0,1.0,-0.46197089552879333,-0.7063368558883667,0.26857087016105663,1.2184696791468346e-07,0.0,0.0,0.0,1.2184696791468346e-07,0.0,0.0,0.0,1.2184696791468346e-07,0.22602200508117676,0.11487829685211326,11.790072441101074,8.999999999999999e-08,0.0,0.0,0.0,8.999999999999999e-08,0.0,0.0,0.0,8.999999999999999e-08
651033000000,129927,633438095890893824,base_link,0.036913077887502574,-0.011776062598699557,0.0016694788163651435,-0.9992477037866581,1.0,0.0,0.0,0.0,1.0,0.0,0.0,0.0,1.0,-0.5262659788131714,-0.8105467557907104,0.29813486337661754,1.2184696791468346e-07,0.0,0.0,0.0,1.2184696791468346e-07,0.0,0.0,0.0,1.2184696791468346e-07,0.20215949416160583,0.11014693975448757,12.149613380432129,8.999999999999999e-08,0.0,0.0,0.0,8.999999999999999e-08,0.0,0.0,0.0,8.999999999999999e-08
651039000000,129928,633438095898893824,base_link,0.039178149625243235,-0.008194059895675378,0.00018890217502592847,-0.9991986870018399,1.0,0.0,0.0,0.0,1.0,0.0,0.0,0.0,1.0,-0.5701373219490051,-0.9090007543563843,0.33041781187057506,1.2184696791468346e-07,0.0,0.0,0.0,1.2184696791468346e-07,0.0,0.0,0.0,1.2184696791468346e-07,0.1985776722431183,0.10981523245573203,12.979103088378906,8.999999999999999e-08,0.0,0.0,0.0,8.999999999999999e-08,0.0,0.0,0.0,8.999999999999999e-08
651044000000,129929,633438095902893824,base_link,0.040335145154229056,-0.006233424064352018,-0.0006198537010496112,-0.999166613250123,1.0,0.0,0.0,0.0,1.0,0.0,0.0,0.0,1.0,-0.5783310532569885,-0.9743565917015076,0.3535912036895753,1.2184696791468346e-07,0.0,0.0,0.0,1.2184696791468346e-07,0.0,0.0,0.0,1.2184696791468346e-07,0.1759139895439148,0.10246346890926525,13.401494026184082,8.999999999999999e-08,0.0,0.0,0.0,8.999999999999999e-08,0.0,0.0,0.0,8.999999999999999e-08
651049000000,129930,633438095906893824,base_link,0.04142997013039427,-0.004237810300031664,-0.0014410007505873958,-0.9991314206316164,1.0,0.0,0.0,0.0,1.0,0.0,0.0,0.0,1.0,-0.5514748692512512,-1.018259048461914,0.37089192867279064,1.2184696791468346e-07,0.0,0.0,0.0,1.2184696791468346e-07,0.0,0.0,0.0,1.2184696791468346e-07,0.21305301785469055,0.1589568555355089,13.71191692352295,8.999999999999999e-08,0.0,0.0,0.0,8.999999999999999e-08,0.0,0.0,0.0,8.999999999999999e-08
651054000000,129931,633438095914893824,base_link,0.04329546603664936,-0.00017676124847659772,-0.003151614891098997,-0.9990573686187828,1.0,0.0,0.0,0.0,1.0,0.0,0.0,0.0,1.0,-0.4887596070766449,-1.0365768671035767,0.3834897279739381,1.2184696791468346e-07,0.0,0.0,0.0,1.2184696791468346e-07,0.0,0.0,0.0,1.2184696791468346e-07,0.21205684542655945,0.0951708927750604,13.482060432434082,8.999999999999999e-08,0.0,0.0,0.0,8.999999999999999e-08,0.0,0.0,0.0,8.999999999999999e-08
651058000000,129932,633438095918893824,base_link,0.04397526441008271,0.0018183348998604793,-0.004022073753394584,-0.9990229346435495,1.0,0.0,0.0,0.0,1.0,0.0,0.0,0.0,1.0,-0.413983553647995,-1.0325249433517456,0.3913359344005586,1.2184696791468346e-07,0.0,0.0,0.0,1.2184696791468346e-07,0.0,0.0,0.0,1.2184696791468346e-07,0.2686345875263214,0.0682649016380326,12.986186981201172,8.999999999999999e-08,0.0,0.0,0.0,8.999999999999999e-08,0.0,0.0,0.0,8.999999999999999e-08
651063000000,129933,633438095922797568,base_link,0.04443732162739666,0.003766371457657115,-0.004894850692358121,-0.9989930946748038,1.0,0.0,0.0,0.0,1.0,0.0,0.0,0.0,1.0,-0.2903117835521698,-1.007511854171753,0.39503762125968944,1.2184696791468346e-07,0.0,0.0,0.0,1.2184696791468346e-07,0.0,0.0,0.0,1.2184696791468346e-07,0.25461989641189575,0.13529907166958008,12.358173370361328,8.999999999999999e-08,0.0,0.0,0.0,8.999999999999999e-08,0.0,0.0,0.0,8.999999999999999e-08
651069000000,129934,633438095926797568,base_link,0.04466567193553967,0.005620539081285892,-0.005768428421443483,-0.9989695345864861,1.0,0.0,0.0,0.0,1.0,0.0,0.0,0.0,1.0,-0.11452757567167282,-0.9458777904510498,0.3948897719383241,1.2184696791468346e-07,0.0,0.0,0.0,1.2184696791468346e-07,0.0,0.0,0.0,1.2184696791468346e-07,0.2589363753795624,0.09606193751096867,11.5978364944458,8.999999999999999e-08,0.0,0.0,0.0,8.999999999999999e-08,0.0,0.0,0.0,8.999999999999999e-08
651074000000,129935,633438095934797568,base_link,0.04433735061981784,0.008981204975177081,-0.007461635913520114,-0.9989484611622306,1.0,0.0,0.0,0.0,1.0,0.0,0.0,0.0,1.0,0.04928598925471306,-0.8733133673667908,0.3882714807987214,1.2184696791468346e-07,0.0,0.0,0.0,1.2184696791468346e-07,0.0,0.0,0.0,1.2184696791468346e-07,0.19030222296714783,0.14245752990245944,10.13742733001709,8.999999999999999e-08,0.0,0.0,0.0,8.999999999999999e-08,0.0,0.0,0.0,8.999999999999999e-08
651079000000,129936,633438095938797568,base_link,0.043748947687380364,0.010452563310493535,-0.008263226825348746,-0.9989537295182945,1.0,0.0,0.0,0.0,1.0,0.0,0.0,0.0,1.0,0.2241542935371399,-0.7876663208007812,0.37407061457633983,1.2184696791468346e-07,0.0,0.0,0.0,1.2184696791468346e-07,0.0,0.0,0.0,1.2184696791468346e-07,0.2263774573802948,0.09777309000492211,9.445528984069824,8.999999999999999e-08,0.0,0.0,0.0,8.999999999999999e-08,0.0,0.0,0.0,8.999999999999999e-08
651084000000,129937,633438095942797568,base_link,0.04287460341248777,0.011738381999041923,-0.00903902386588884,-0.9989706304045474,1.0,0.0,0.0,0.0,1.0,0.0,0.0,0.0,1.0,0.40463656187057495,-0.6834654211997986,0.3581180274486543,1.2184696791468346e-07,0.0,0.0,0.0,1.2184696791468346e-07,0.0,0.0,0.0,1.2184696791468346e-07,0.21978098154067993,0.13555219769477952,8.934090614318848,8.999999999999999e-08,0.0,0.0,0.0,8.999999999999999e-08,0.0,0.0,0.0,8.999999999999999e-08
651088000000,129938,633438095946797568,base_link,0.041700130112260085,0.012830326501529214,-0.009780808399680596,-0.998999964611111,1.0,0.0,0.0,0.0,1.0,0.0,0.0,0.0,1.0,0.5547221899032593,-0.5887027382850647,0.34389877319335943,1.2184696791468346e-07,0.0,0.0,0.0,1.2184696791468346e-07,0.0,0.0,0.0,1.2184696791468346e-07,0.22820019721984863,0.11918303370475873,8.454136848449707,8.999999999999999e-08,0.0,0.0,0.0,8.999999999999999e-08,0.0,0.0,0.0,8.999999999999999e-08
651093000000,129939,633438095950797568,base_link,0.04021538620127437,0.013726911141545398,-0.010486304496904464,-0.9990417321379852,1.0,0.0,0.0,0.0,1.0,0.0,0.0,0.0,1.0,0.7477045059204102,-0.46356540918350214,0.3226545453071595,1.2184696791468346e-07,0.0,0.0,0.0,1.2184696791468346e-07,0.0,0.0,0.0,1.2184696791468346e-07,0.2176738977432251,0.14627932012081246,8.176750183105469,8.999999999999999e-08,0.0,0.0,0.0,8.999999999999999e-08,0.0,0.0,0.0,8.999999999999999e-08
651099000000,129940,633438095958797568,base_link,0.03629278888853308,0.014856031140052822,-0.011776082355034799,-0.9991614291877562,1.0,0.0,0.0,0.0,1.0,0.0,0.0,0.0,1.0,0.9766533374786377,-0.2992869913578033,0.2949850261211396,1.2184696791468346e-07,0.0,0.0,0.0,1.2184696791468346e-07,0.0,0.0,0.0,1.2184696791468346e-07,0.2573643624782562,0.11075404286384677,7.736482620239258,8.999999999999999e-08,0.0,0.0,0.0,8.999999999999999e-08,0.0,0.0,0.0,8.999999999999999e-08
651104000000,129941,633438095962797568,base_link,0.03394359994369878,0.015053918496345565,-0.012341018712474837,-0.999234174648286,1.0,0.0,0.0,0.0,1.0,0.0,0.0,0.0,1.0,1.1615736484527588,-0.15103399753570554,0.270177960395813,1.2184696791468346e-07,0.0,0.0,0.0,1.2184696791468346e-07,0.0,0.0,0.0,1.2184696791468346e-07,0.24700412154197693,0.12132809311151599,7.662550449371338,8.999999999999999e-08,0.0,0.0,0.0,8.999999999999999e-08,0.0,0.0,0.0,8.999999999999999e-08
651109000000,129942,633438095966797568,base_link,0.03130948579058517,0.01500898402893238,-0.01286722211613328,-0.9993142115136082,1.0,0.0,0.0,0.0,1.0,0.0,0.0,0.0,1.0,1.3311767578125,0.0047455048188567465,0.24515840411186218,1.2184696791468346e-07,0.0,0.0,0.0,1.2184696791468346e-07,0.0,0.0,0.0,1.2184696791468346e-07,0.1937042772769928,0.11672856658697223,7.737198352813721,8.999999999999999e-08,0.0,0.0,0.0,8.999999999999999e-08,0.0,0.0,0.0,8.999999999999999e-08
651114000000,129943,633438095970797568,base_link,0.028439911682820382,0.014701768406146887,-0.013353723188494536,-0.9993982101826904,1.0,0.0,0.0,0.0,1.0,0.0,0.0,0.0,1.0,1.4491167068481445,0.1296866685152054,0.22530074417591092,1.2184696791468346e-07,0.0,0.0,0.0,1.2184696791468346e-07,0.0,0.0,0.0,1.2184696791468346e-07,0.1744903326034546,0.15333873033523657,7.898583889007568,8.999999999999999e-08,0.0,0.0,0.0,8.999999999999999e-08,0.0,0.0,0.0,8.999999999999999e-08
651118000000,129944,633438095978797568,base_link,0.022092374038308295,0.013371809784134195,-0.014179885713005103,-0.9995659546397637,1.0,0.0,0.0,0.0,1.0,0.0,0.0,0.0,1.0,1.575703740119934,0.2809004485607147,0.19732943177223203,1.2184696791468346e-07,0.0,0.0,0.0,1.2184696791468346e-07,0.0,0.0,0.0,1.2184696791468346e-07,0.21317195892333984,0.15250761806964977,8.376189231872559,8.999999999999999e-08,0.0,0.0,0.0,8.999999999999999e-08,0.0,0.0,0.0,8.999999999999999e-08
651125000000,129945,633438095982797568,base_link,0.01868984644567817,0.012351191578762006,-0.01453585799552809,-0.9996433362536298,1.0,0.0,0.0,0.0,1.0,0.0,0.0,0.0,1.0,1.7010204792022705,0.4603424668312073,0.16848854720592493,1.2184696791468346e-07,0.0,0.0,0.0,1.2184696791468346e-07,0.0,0.0,0.0,1.2184696791468346e-07,0.1791989505290985,0.10402654856443509,8.524584770202637,8.999999999999999e-08,0.0,0.0,0.0,8.999999999999999e-08,0.0,0.0,0.0,8.999999999999999e-08
651129000000,129946,633438095986797568,base_link,0.015156468858126033,0.011087414868804182,-0.014839778920140156,-0.9997135107564004,1.0,0.0,0.0,0.0,1.0,0.0,0.0,0.0,1.0,1.7838150262832642,0.6083443760871887,0.14176091551780692,1.2184696791468346e-07,0.0,0.0,0.0,1.2184696791468346e-07,0.0,0.0,0.0,1.2184696791468346e-07,0.14717641472816467,0.12309220433235275,8.737858772277832,8.999999999999999e-08,0.0,0.0,0.0,8.999999999999999e-08,0.0,0.0,0.0,8.999999999999999e-08
651134000000,129947,633438095994797568,base_link,0.007837159803686366,0.007905947252231944,-0.015271699823679818,-0.9998214066885883,1.0,0.0,0.0,0.0,1.0,0.0,0.0,0.0,1.0,1.8388550281524658,0.7458019256591797,0.1071498915553092,1.2184696791468346e-07,0.0,0.0,0.0,1.2184696791468346e-07,0.0,0.0,0.0,1.2184696791468346e-07,0.17331284284591675,0.12040449678897973,9.388373374938965,8.999999999999999e-08,0.0,0.0,0.0,8.999999999999999e-08,0.0,0.0,0.0,8.999999999999999e-08
651139000000,129948,633438095998797568,base_link,0.004112549372349029,0.006058487478070975,-0.015382208860475421,-0.9998548712863059,1.0,0.0,0.0,0.0,1.0,0.0,0.0,0.0,1.0,1.8621833324432373,0.857731819152832,0.06489964574575413,1.2184696791468346e-07,0.0,0.0,0.0,1.2184696791468346e-07,0.0,0.0,0.0,1.2184696791468346e-07,0.17531055212020874,0.11268838495016217,9.798020362854004,8.999999999999999e-08,0.0,0.0,0.0,8.999999999999999e-08,0.0,0.0,0.0,8.999999999999999e-08
651143000000,129949,633438096002797568,base_link,0.0004663445066971045,0.004075578354398624,-0.015414661933828788,-0.9998728258437717,1.0,0.0,0.0,0.0,1.0,0.0,0.0,0.0,1.0,1.8517324924468994,0.9325634241104126,0.028027445077896004,1.2184696791468346e-07,0.0,0.0,0.0,1.2184696791468346e-07,0.0,0.0,0.0,1.2184696791468346e-07,0.22122809290885925,0.1527805030345929,10.039457321166992,8.999999999999999e-08,0.0,0.0,0.0,8.999999999999999e-08,0.0,0.0,0.0,8.999999999999999e-08
651148000000,129950,633438096006797568,base_link,-0.0030853251423810122,0.0019771142612744195,-0.015374285252955311,-0.9998751017735912,1.0,0.0,0.0,0.0,1.0,0.0,0.0,0.0,1.0,1.8022325038909912,1.0099778175354004,-0.01793899387121213,1.2184696791468346e-07,0.0,0.0,0.0,1.2184696791468346e-07,0.0,0.0,0.0,1.2184696791468346e-07,0.19570055603981018,0.09223795682191972,10.086372375488281,8.999999999999999e-08,0.0,0.0,0.0,8.999999999999999e-08,0.0,0.0,0.0,8.999999999999999e-08
651153000000,129951,633438096010797568,base_link,-0.006512502714489441,-0.00021679614475038827,-0.015261205258400579,-0.9998623312784924,1.0,0.0,0.0,0.0,1.0,0.0,0.0,0.0,1.0,1.7226357460021973,1.0711392164230347,-0.0639067590236665,1.2184696791468346e-07,0.0,0.0,0.0,1.2184696791468346e-07,0.0,0.0,0.0,1.2184696791468346e-07,0.19578450918197632,0.11880587786436203,10.014775276184082,8.999999999999999e-08,0.0,0.0,0.0,8.999999999999999e-08,0.0,0.0,0.0,8.999999999999999e-08
651159000000,129952,633438096018701312,base_link,-0.012797568192796252,-0.004808806254761889,-0.014831560284680523,-0.9997965821948154,1.0,0.0,0.0,0.0,1.0,0.0,0.0,0.0,1.0,1.589918851852417,1.1271483898162842,-0.11541678756475462,1.2184696791468346e-07,0.0,0.0,0.0,1.2184696791468346e-07,0.0,0.0,0.0,1.2184696791468346e-07,0.16383793950080872,0.14848186075687528,9.706072807312012,8.999999999999999e-08,0.0,0.0,0.0,8.999999999999999e-08,0.0,0.0,0.0,8.999999999999999e-08
651164000000,129953,633438096022701312,base_link,-0.015592031018886314,-0.007151066982099964,-0.014522497444550142,-0.9997473968226032,1.0,0.0,0.0,0.0,1.0,0.0,0.0,0.0,1.0,1.448486328125,1.152743935585022,-0.15690262615680708,1.2184696791468346e-07,0.0,0.0,0.0,1.2184696791468346e-07,0.0,0.0,0.0,1.2184696791468346e-07,0.19745463132858276,0.12890622019767878,9.424393653869629,8.999999999999999e-08,0.0,0.0,0.0,8.999999999999999e-08,0.0,0.0,0.0,8.999999999999999e-08
651169000000,129954,633438096026701312,base_link,-0.01809432563492603,-0.009469444605039283,-0.014153038170503673,-0.9996912572203867,1.0,0.0,0.0,0.0,1.0,0.0,0.0,0.0,1.0,1.2885338068008423,1.1564130783081055,-0.1957960575819017,1.2184696791468346e-07,0.0,0.0,0.0,1.2184696791468346e-07,0.0,0.0,0.0,1.2184696791468346e-07,0.18455259501934052,0.07383311539888493,9.08284854888916,8.999999999999999e-08,0.0,0.0,0.0,8.999999999999999e-08,0.0,0.0,0.0,8.999999999999999e-08
651173000000,129955,633438096030701312,base_link,-0.020377874485199416,-0.011787999705723504,-0.013724531161693365,-0.999628669150348,1.0,0.0,0.0,0.0,1.0,0.0,0.0,0.0,1.0,1.1574198007583618,1.1384057998657227,-0.22478827834129347,1.2184696791468346e-07,0.0,0.0,0.0,1.2184696791468346e-07,0.0,0.0,0.0,1.2184696791468346e-07,0.18537642061710358,0.09670027345419037,8.73802375793457,8.999999999999999e-08,0.0,0.0,0.0,8.999999999999999e-08,0.0,0.0,0.0,8.999999999999999e-08
651178000000,129956,633438096038701312,base_link,-0.02413161538846562,-0.01620285541618708,-0.01268797156941648,-0.9994970023956,1.0,0.0,0.0,0.0,1.0,0.0,0.0,0.0,1.0,0.9850826263427734,1.0955297946929932,-0.26251545548439037,1.2184696791468346e-07,0.0,0.0,0.0,1.2184696791468346e-07,0.0,0.0,0.0,1.2184696791468346e-07,0.22611521184444427,0.07372257858514886,8.180692672729492,8.999999999999999e-08,0.0,0.0,0.0,8.999999999999999e-08,0.0,0.0,0.0,8.999999999999999e-08
651185000000,129957,633438096042701312,base_link,-0.025566090950795737,-0.018262156032057678,-0.012085735251044285,-0.999433234213803,1.0,0.0,0.0,0.0,1.0,0.0,0.0,0.0,1.0,0.7647164463996887,1.0201534032821655,-0.3053306043148042,1.2184696791468346e-07,0.0,0.0,0.0,1.2184696791468346e-07,0.0,0.0,0.0,1.2184696791468346e-07,0.20768186450004578,0.06406883895397283,7.9507293701171875,8.999999999999999e-08,0.0,0.0,0.0,8.999999999999999e-08,0.0,0.0,0.0,8.999999999999999e-08
651189000000,129958,633438096046701312,base_link,-0.026707590598236474,-0.020170336488414438,-0.011441436377858273,-0.9993743550664332,1.0,0.0,0.0,0.0,1.0,0.0,0.0,0.0,1.0,0.5798577070236206,0.9365577697753906,-0.33654579520225536,1.2184696791468346e-07,0.0,0.0,0.0,1.2184696791468346e-07,0.0,0.0,0.0,1.2184696791468346e-07,0.17812083661556244,0.10660970211029148,7.790116310119629,8.999999999999999e-08,0.0,0.0,0.0,8.999999999999999e-08,0.0,0.0,0.0,8.999999999999999e-08
651194000000,129959,633438096054701312,base_link,-0.028111638111575254,-0.0235096955040221,-0.010000477774119334,-0.999278302398677,1.0,0.0,0.0,0.0,1.0,0.0,0.0,0.0,1.0,0.39573630690574646,0.8383812308311462,-0.36791178584098827,1.2184696791468346e-07,0.0,0.0,0.0,1.2184696791468346e-07,0.0,0.0,0.0,1.2184696791468346e-07,0.20976683497428894,0.07994440197944734,7.592539310455322,8.999999999999999e-08,0.0,0.0,0.0,8.999999999999999e-08,0.0,0.0,0.0,8.999999999999999e-08
651199000000,129960,633438096058701312,base_link,-0.028415837106605803,-0.024916658558533845,-0.009209845042903455,-0.9992431940738673,1.0,0.0,0.0,0.0,1.0,0.0,0.0,0.0,1.0,0.22484739124774933,0.7280547618865967,-0.3977780044078828,1.2184696791468346e-07,0.0,0.0,0.0,1.2184696791468346e-07,0.0,0.0,0.0,1.2184696791468346e-07,0.17585274577140808,0.06347419321537111,7.630741596221924,8.999999999999999e-08,0.0,0.0,0.0,8.999999999999999e-08,0.0,0.0,0.0,8.999999999999999e-08
651203000000,129961,633438096062701312,base_link,-0.028464890358326105,-0.02610197586422029,-0.008375337442387722,-0.999218833195428,1.0,0.0,0.0,0.0,1.0,0.0,0.0,0.0,1.0,0.0969218984246254,0.630471408367157,-0.4221062362194062,1.2184696791468346e-07,0.0,0.0,0.0,1.2184696791468346e-07,0.0,0.0,0.0,1.2184696791468346e-07,0.22767071425914764,0.058479197323323254,7.803488731384277,8.999999999999999e-08,0.0,0.0,0.0,8.999999999999999e-08,0.0,0.0,0.0,8.999999999999999e-08
651208000000,129962,633438096066701312,base_link,-0.028320991839045833,-0.027061352681913595,-0.007486881875778064,-0.9992045032669343,1.0,0.0,0.0,0.0,1.0,0.0,0.0,0.0,1.0,-0.03843820095062256,0.49367272853851313,-0.4517007172107697,1.2184696791468346e-07,0.0,0.0,0.0,1.2184696791468346e-07,0.0,0.0,0.0,1.2184696791468346e-07,0.19281741976737976,0.08290401846170524,8.078402519226074,8.999999999999999e-08,0.0,0.0,0.0,8.999999999999999e-08,0.0,0.0,0.0,8.999999999999999e-08
651214000000,129963,633438096074701312,base_link,-0.027570872724802038,-0.02823442595767634,-0.005614044515347973,-0.9992052619102075,1.0,0.0,0.0,0.0,1.0,0.0,0.0,0.0,1.0,-0.16302739083766937,0.3114291429519653,-0.4796111881732941,1.2184696791468346e-07,0.0,0.0,0.0,1.2184696791468346e-07,0.0,0.0,0.0,1.2184696791468346e-07,0.2180887758731842,0.10426063090562931,9.035099029541016,8.999999999999999e-08,0.0,0.0,0.0,8.999999999999999e-08,0.0,0.0,0.0,8.999999999999999e-08
651219000000,129964,633438096078701312,base_link,-0.027040826960893636,-0.02842836114142249,-0.004616007142610014,-0.9992194232513072,1.0,0.0,0.0,0.0,1.0,0.0,0.0,0.0,1.0,-0.23472870886325836,0.14829824864864344,-0.5014285445213318,1.2184696791468346e-07,0.0,0.0,0.0,1.2184696791468346e-07,0.0,0.0,0.0,1.2184696791468346e-07,0.224086731672287,0.07632908225059623,9.342323303222656,8.999999999999999e-08,0.0,0.0,0.0,8.999999999999999e-08,0.0,0.0,0.0,8.999999999999999e-08
651224000000,129965,633438096082701312,base_link,-0.02646645925828254,-0.02834115503131415,-0.0035909114931281256,-0.9992414239062299,1.0,0.0,0.0,0.0,1.0,0.0,0.0,0.0,1.0,-0.2721840739250183,-0.026372006163001123,-0.5181044936180115,1.2184696791468346e-07,0.0,0.0,0.0,1.2184696791468346e-07,0.0,0.0,0.0,1.2184696791468346e-07,0.15363579988479614,0.12686818838119623,9.616759300231934,8.999999999999999e-08,0.0,0.0,0.0,8.999999999999999e-08,0.0,0.0,0.0,8.999999999999999e-08
651229000000,129966,633438096086701312,base_link,-0.025891737505680336,-0.027947036640484302,-0.002530033169260317,-0.9992708845533389,1.0,0.0,0.0,0.0,1.0,0.0,0.0,0.0,1.0,-0.2758041024208069,-0.21149891614913946,-0.5309264659881592,1.2184696791468346e-07,0.0,0.0,0.0,1.2184696791468346e-07,0.0,0.0,0.0,1.2184696791468346e-07,0.19705122709274292,0.06882929801941037,9.759596824645996,8.999999999999999e-08,0.0,0.0,0.0,8.999999999999999e-08,0.0,0.0,0.0,8.999999999999999e-08
651233000000,129967,633438096090701312,base_link,-0.025348516818027172,-0.02726738232366207,-0.001455625707020682,-0.9993056978502091,1.0,0.0,0.0,0.0,1.0,0.0,0.0,0.0,1.0,-0.25640225410461426,-0.35793149471282965,-0.535105288028717,1.2184696791468346e-07,0.0,0.0,0.0,1.2184696791468346e-07,0.0,0.0,0.0,1.2184696791468346e-07,0.16898025572299957,0.13363324105739713,9.771122932434082,8.999999999999999e-08,0.0,0.0,0.0,8.999999999999999e-08,0.0,0.0,0.0,8.999999999999999e-08
651238000000,129968,633438096098701312,base_link,-0.024525350321176177,-0.025027342212521606,0.0007432596734897586,-0.9993856082749857,1.0,0.0,0.0,0.0,1.0,0.0,0.0,0.0,1.0,-0.2070368230342865,-0.5428802371025087,-0.5403434634208678,1.2184696791468346e-07,0.0,0.0,0.0,1.2184696791468346e-07,0.0,0.0,0.0,1.2184696791468346e-07,0.1705218106508255,0.09607648104429363,9.6461763381958,8.999999999999999e-08,0.0,0.0,0.0,8.999999999999999e-08,0.0,0.0,0.0,8.999999999999999e-08
651244000000,129969,633438096102701312,base_link,-0.024303794196142512,-0.023476359939868983,0.0018499937685372266,-0.9994272072144659,1.0,0.0,0.0,0.0,1.0,0.0,0.0,0.0,1.0,-0.11414511501789093,-0.7578219771385194,-0.5370917916297911,1.2184696791468346e-07,0.0,0.0,0.0,1.2184696791468346e-07,0.0,0.0,0.0,1.2184696791468346e-07,0.20207755267620087,0.1005715727806103,9.517671585083008,8.999999999999999e-08,0.0,0.0,0.0,8.999999999999999e-08,0.0,0.0,0.0,8.999999999999999e-08
651249000000,129970,633438096106701312,base_link,-0.024246483660631774,-0.021625076782344203,0.0029772533788096065,-0.9994676681890364,1.0,0.0,0.0,0.0,1.0,0.0,0.0,0.0,1.0,-0.015580743551254272,-0.9277207851409913,-0.5317668914794921,1.2184696791468346e-07,0.0,0.0,0.0,1.2184696791468346e-07,0.0,0.0,0.0,1.2184696791468346e-07,0.19683916866779327,0.1120868548750889,9.488438606262207,8.999999999999999e-08,0.0,0.0,0.0,8.999999999999999e-08,0.0,0.0,0.0,8.999999999999999e-08
651254000000,129971,633438096114701312,base_link,-0.024677108548579706,-0.01722286743133967,0.005185621800234962,-0.9995336280069559,1.0,0.0,0.0,0.0,1.0,0.0,0.0,0.0,1.0,0.09845099598169327,-1.085838794708252,-0.5231926441192626,1.2184696791468346e-07,0.0,0.0,0.0,1.2184696791468346e-07,0.0,0.0,0.0,1.2184696791468346e-07,0.22825391590595245,0.12089201807975884,9.44265079498291,8.999999999999999e-08,0.0,0.0,0.0,8.999999999999999e-08,0.0,0.0,0.0,8.999999999999999e-08
651259000000,129972,633438096118701312,base_link,-0.025202906947365808,-0.014715545486526014,0.006252780004530722,-0.9995545328438173,1.0,0.0,0.0,0.0,1.0,0.0,0.0,0.0,1.0,0.22735269367694855,-1.2257990837097168,-0.5087608695030211,1.2184696791468346e-07,0.0,0.0,0.0,1.2184696791468346e-07,0.0,0.0,0.0,1.2184696791468346e-07,0.1961086094379425,0.1652169823646557,9.568161010742188,8.999999999999999e-08,0.0,0.0,0.0,8.999999999999999e-08,0.0,0.0,0.0,8.999999999999999e-08
651263000000,129973,633438096122605056,base_link,-0.025933387893950274,-0.01202841817124755,0.007290435414869011,-0.999564732381157,1.0,0.0,0.0,0.0,1.0,0.0,0.0,0.0,1.0,0.33377861976623535,-1.323826551437378,-0.49222260713577254,1.2184696791468346e-07,0.0,0.0,0.0,1.2184696791468346e-07,0.0,0.0,0.0,1.2184696791468346e-07,0.19627894461154938,0.13712865114212155,9.719806671142578,8.999999999999999e-08,0.0,0.0,0.0,8.999999999999999e-08,0.0,0.0,0.0,8.999999999999999e-08
651268000000,129974,633438096126605056,base_link,-0.026889933011418284,-0.009126569455691033,0.008319830042899101,-0.9995621192765493,1.0,0.0,0.0,0.0,1.0,0.0,0.0,0.0,1.0,0.469243586063385,-1.4360872507095337,-0.4718614518642424,1.2184696791468346e-07,0.0,0.0,0.0,1.2184696791468346e-07,0.0,0.0,0.0,1.2184696791468346e-07,0.18713700771331787,0.13912828266620758,10.058307647705078,8.999999999999999e-08,0.0,0.0,0.0,8.999999999999999e-08,0.0,0.0,0.0,8.999999999999999e-08
651273000000,129975,633438096130605056,base_link,-0.028052585437727682,-0.006082502785279584,0.009311587535208887,-0.9995446283344172,1.0,0.0,0.0,0.0,1.0,0.0,0.0,0.0,1.0,0.5985151529312134,-1.5319175720214844,-0.4486869573593138,1.2184696791468346e-07,0.0,0.0,0.0,1.2184696791468346e-07,0.0,0.0,0.0,1.2184696791468346e-07,0.21297121047973633,0.18771979212761053,10.475550651550293,8.999999999999999e-08,0.0,0.0,0.0,8.999999999999999e-08,0.0,0.0,0.0,8.999999999999999e-08
651279000000,129976,633438096138605056,base_link,-0.03081984082674269,0.00030857551719454187,0.011164405142596368,-0.9994625684203665,1.0,0.0,0.0,0.0,1.0,0.0,0.0,0.0,1.0,0.7156904935836792,-1.610497236251831,-0.4141179025173185,1.2184696791468346e-07,0.0,0.0,0.0,1.2184696791468346e-07,0.0,0.0,0.0,1.2184696791468346e-07,0.22765693068504333,0.08898191154003281,11.250064849853516,8.999999999999999e-08,0.0,0.0,0.0,8.999999999999999e-08,0.0,0.0,0.0,8.999999999999999e-08
651284000000,129977,633438096142605056,base_link,-0.03236456628860448,0.003585807773191371,0.012007089231723111,-0.9993975779799626,1.0,0.0,0.0,0.0,1.0,0.0,0.0,0.0,1.0,0.7828988432884216,-1.6411045789718628,-0.3792067468166349,1.2184696791468346e-07,0.0,0.0,0.0,1.2184696791468346e-07,0.0,0.0,0.0,1.2184696791468346e-07,0.2368188351392746,0.15054701268673082,11.399869918823242,8.999999999999999e-08,0.0,0.0,0.0,8.999999999999999e-08,0.0,0.0,0.0,8.999999999999999e-08
651289000000,129978,633438096146605056,base_link,-0.03396752684130718,0.006851851357997571,0.012802653144214804,-0.999317498967792,1.0,0.0,0.0,0.0,1.0,0.0,0.0,0.0,1.0,0.8254263401031494,-1.6391671895980835,-0.34624934196472146,1.2184696791468346e-07,0.0,0.0,0.0,1.2184696791468346e-07,0.0,0.0,0.0,1.2184696791468346e-07,0.27731749415397644,0.11791557073593278,11.34722900390625,8.999999999999999e-08,0.0,0.0,0.0,8.999999999999999e-08,0.0,0.0,0.0,8.999999999999999e-08
651293000000,129979,633438096150605056,base_link,-0.03561894836726332,0.010074051683640315,0.013544564118552038,-0.999222879292885,1.0,0.0,0.0,0.0,1.0,0.0,0.0,0.0,1.0,0.8477920293807983,-1.6149952411651611,-0.31919088959693886,1.2184696791468346e-07,0.0,0.0,0.0,1.2184696791468346e-07,0.0,0.0,0.0,1.2184696791468346e-07,0.22756269574165344,0.08478876948356764,11.09443473815918,8.999999999999999e-08,0.0,0.0,0.0,8.999999999999999e-08,0.0,0.0,0.0,8.999999999999999e-08
651298000000,129980,633438096158605056,base_link,-0.038967983048054516,0.016340472779109376,0.014854614610816165,-0.998996424275836,1.0,0.0,0.0,0.0,1.0,0.0,0.0,0.0,1.0,0.8537130355834961,-1.5677860975265503,-0.28383913636207564,1.2184696791468346e-07,0.0,0.0,0.0,1.2184696791468346e-07,0.0,0.0,0.0,1.2184696791468346e-07,0.23729142546653748,0.122277840971948,10.370085716247559,8.999999999999999e-08,0.0,0.0,0.0,8.999999999999999e-08,0.0,0.0,0.0,8.999999999999999e-08
651305000000,129981,633438096163605056,base_link,-0.040541137217781416,0.019288000117373097,0.015426294464017944,-0.998872596834911,1.0,0.0,0.0,0.0,1.0,0.0,0.0,0.0,1.0,0.818026602268219,-1.4918646812438965,-0.24648886919021587,1.2184696791468346e-07,0.0,0.0,0.0,1.2184696791468346e-07,0.0,0.0,0.0,1.2184696791468346e-07,0.25646868348121643,0.1051936075091374,9.787359237670898,8.999999999999999e-08,0.0,0.0,0.0,8.999999999999999e-08,0.0,0.0,0.0,8.999999999999999e-08
651309000000,129982,633438096166605056,base_link,-0.04200338063856289,0.022121084273950566,0.015954015154222845,-0.9987451869118626,1.0,0.0,0.0,0.0,1.0,0.0,0.0,0.0,1.0,0.7453196048736572,-1.4076920747756958,-0.2173123657703398,1.2184696791468346e-07,0.0,0.0,0.0,1.2184696791468346e-07,0.0,0.0,0.0,1.2184696791468346e-07,0.2194986641407013,0.12254676967859382,9.252592086791992,8.999999999999999e-08,0.0,0.0,0.0,8.999999999999999e-08,0.0,0.0,0.0,8.999999999999999e-08
651314000000,129983,633438096174605056,base_link,-0.04440451886690941,0.02724800539237738,0.01684440947586402,-0.9984998922535292,1.0,0.0,0.0,0.0,1.0,0.0,0.0,0.0,1.0,0.6411535143852234,-1.3027267456054688,-0.1873223334550856,1.2184696791468346e-07,0.0,0.0,0.0,1.2184696791468346e-07,0.0,0.0,0.0,1.2184696791468346e-07,0.22810301184654236,0.14755810797214608,8.252906799316406,8.999999999999999e-08,0.0,0.0,0.0,8.999999999999999e-08,0.0,0.0,0.0,8.999999999999999e-08
651319000000,129984,633438096178605056,base_link,-0.045315580290844586,0.02951995299332588,0.017212688638152177,-0.9983881188112782,1.0,0.0,0.0,0.0,1.0,0.0,0.0,0.0,1.0,0.5177218914031982,-1.1788731813430786,-0.1564630717039107,1.2184696791468346e-07,0.0,0.0,0.0,1.2184696791468346e-07,0.0,0.0,0.0,1.2184696791468346e-07,0.2253875732421875,0.08642933517694569,7.8029327392578125,8.999999999999999e-08,0.0,0.0,0.0,8.999999999999999e-08,0.0,0.0,0.0,8.999999999999999e-08
651323000000,129985,633438096182605056,base_link,-0.04599330622471131,0.03155451373839284,0.017537935868110813,-0.9982892001578233,1.0,0.0,0.0,0.0,1.0,0.0,0.0,0.0,1.0,0.4070919156074524,-1.0702667236328125,-0.1341565996408461,1.2184696791468346e-07,0.0,0.0,0.0,1.2184696791468346e-07,0.0,0.0,0.0,1.2184696791468346e-07,0.16451868414878845,0.125731736421586,7.4137349128723145,8.999999999999999e-08,0.0,0.0,0.0,8.999999999999999e-08,0.0,0.0,0.0,8.999999999999999e-08
651328000000,129986,633438096186605056,base_link,-0.04642424984820111,0.03336991811519274,0.01780126937760679,-0.9982055808103776,1.0,0.0,0.0,0.0,1.0,0.0,0.0,0.0,1.0,0.25712472200393677,-0.9318430423736572,-0.10468383133411396,1.2184696791468346e-07,0.0,0.0,0.0,1.2184696791468346e-07,0.0,0.0,0.0,1.2184696791468346e-07,0.1880759298801422,0.14938785135746088,7.063023090362549,8.999999999999999e-08,0.0,0.0,0.0,8.999999999999999e-08,0.0,0.0,0.0,8.999999999999999e-08
651334000000,129987,633438096194605056,base_link,-0.04650703086848806,0.036297960438554266,0.01821447708040769,-0.9980921214941864,1.0,0.0,0.0,0.0,1.0,0.0,0.0,0.0,1.0,0.06091265752911568,-0.7562564015388489,-0.07223191857337942,1.2184696791468346e-07,0.0,0.0,0.0,1.2184696791468346e-07,0.0,0.0,0.0,1.2184696791468346e-07,0.1889554262161255,0.13766025006771168,6.611061096191406,8.999999999999999e-08,0.0,0.0,0.0,8.999999999999999e-08,0.0,0.0,0.0,8.999999999999999e-08
651339000000,129988,633438096198605056,base_link,-0.04610422816891338,0.03738951113142579,0.018357944952738684,-0.9980678449094441,1.0,0.0,0.0,0.0,1.0,0.0,0.0,0.0,1.0,-0.12074479460716248,-0.605936586856842,-0.04650999233126633,1.2184696791468346e-07,0.0,0.0,0.0,1.2184696791468346e-07,0.0,0.0,0.0,1.2184696791468346e-07,0.20214876532554626,0.10944321751594623,6.473503589630127,8.999999999999999e-08,0.0,0.0,0.0,8.999999999999999e-08,0.0,0.0,0.0,8.999999999999999e-08
651344000000,129989,633438096202605056,base_link,-0.045414873326852435,0.03822821859954115,0.01845585208182954,-0.998065864007564,1.0,0.0,0.0,0.0,1.0,0.0,0.0,0.0,1.0,-0.3061281144618988,-0.4522359073162079,-0.01940935850143427,1.2184696791468346e-07,0.0,0.0,0.0,1.2184696791468346e-07,0.0,0.0,0.0,1.2184696791468346e-07,0.16448119282722473,0.04826043173670846,6.290346622467041,8.999999999999999e-08,0.0,0.0,0.0,8.999999999999999e-08,0.0,0.0,0.0,8.999999999999999e-08
651348000000,129990,633438096206605056,base_link,-0.04442402923577516,0.03881434757779256,0.01850436310446552,-0.998086979578668,1.0,0.0,0.0,0.0,1.0,0.0,0.0,0.0,1.0,-0.4583948850631714,-0.3274105191230774,0.0034053416457027596,1.2184696791468346e-07,0.0,0.0,0.0,1.2184696791468346e-07,0.0,0.0,0.0,1.2184696791468346e-07,0.18389399349689484,0.09588648378849106,6.2431159019470215,8.999999999999999e-08,0.0,0.0,0.0,8.999999999999999e-08,0.0,0.0,0.0,8.999999999999999e-08
651353000000,129991,633438096210605056,base_link,-0.043127625102805454,0.039147833199546,0.018504278810768496,-0.9981308123011193,1.0,0.0,0.0,0.0,1.0,0.0,0.0,0.0,1.0,-0.6483723521232605,-0.17111481726169586,0.03317672759294512,1.2184696791468346e-07,0.0,0.0,0.0,1.2184696791468346e-07,0.0,0.0,0.0,1.2184696791468346e-07,0.17823117971420288,0.10176526010036546,6.3203535079956055,8.999999999999999e-08,0.0,0.0,0.0,8.999999999999999e-08,0.0,0.0,0.0,8.999999999999999e-08
651358000000,129992,633438096219605056,base_link,-0.039663365877269284,0.039045979083946594,0.01837674244717458,-0.9982808550818181,1.0,0.0,0.0,0.0,1.0,0.0,0.0,0.0,1.0,-0.8363581299781799,-0.013636003248393529,0.06207948178052902,1.2184696791468346e-07,0.0,0.0,0.0,1.2184696791468346e-07,0.0,0.0,0.0,1.2184696791468346e-07,0.20920535922050476,0.07439371198415837,6.5832953453063965,8.999999999999999e-08,0.0,0.0,0.0,8.999999999999999e-08,0.0,0.0,0.0,8.999999999999999e-08
651364000000,129993,633438096222509824,base_link,-0.03751881943249545,0.03863504093131546,0.01825927918037468,-0.9983818810776987,1.0,0.0,0.0,0.0,1.0,0.0,0.0,0.0,1.0,-1.0490854978561401,0.1680472046136856,0.09291941672563551,1.2184696791468346e-07,0.0,0.0,0.0,1.2184696791468346e-07,0.0,0.0,0.0,1.2184696791468346e-07,0.1910955160856247,0.05453567951917733,6.909413814544678,8.999999999999999e-08,0.0,0.0,0.0,8.999999999999999e-08,0.0,0.0,0.0,8.999999999999999e-08
651369000000,129994,633438096226509824,base_link,-0.03512435921589116,0.037984012021371055,0.01809815177851754,-0.998496899827285,1.0,0.0,0.0,0.0,1.0,0.0,0.0,0.0,1.0,-1.2082008123397827,0.3141769468784332,0.12111237645149227,1.2184696791468346e-07,0.0,0.0,0.0,1.2184696791468346e-07,0.0,0.0,0.0,1.2184696791468346e-07,0.1724192053079605,0.09351939707994551,7.3203911781311035,8.999999999999999e-08,0.0,0.0,0.0,8.999999999999999e-08,0.0,0.0,0.0,8.999999999999999e-08
651373000000,129995,633438096230509824,base_link,-0.03250888071990058,0.03710297742818574,0.017877765907654112,-0.998622539582696,1.0,0.0,0.0,0.0,1.0,0.0,0.0,0.0,1.0,-1.3234444856643677,0.42899301648139954,0.14508080482482905,1.2184696791468346e-07,0.0,0.0,0.0,1.2184696791468346e-07,0.0,0.0,0.0,1.2184696791468346e-07,0.17999359965324402,0.09284389764070608,7.912606239318848,8.999999999999999e-08,0.0,0.0,0.0,8.999999999999999e-08,0.0,0.0,0.0,8.999999999999999e-08
651378000000,129996,633438096238509824,base_link,-0.026681521455343464,0.03467111908635859,0.017327370212950336,-0.9988923215600141,1.0,0.0,0.0,0.0,1.0,0.0,0.0,0.0,1.0,-1.4483013153076172,0.5677031874656677,0.17098481953144065,1.2184696791468346e-07,0.0,0.0,0.0,1.2184696791468346e-07,0.0,0.0,0.0,1.2184696791468346e-07,0.19882725179195404,0.06290463358163946,9.160102844238281,8.999999999999999e-08,0.0,0.0,0.0,8.999999999999999e-08,0.0,0.0,0.0,8.999999999999999e-08
651383000000,129997,633438096242509824,base_link,-0.023525383351291264,0.03315801330977533,0.016983831250737994,-0.999028835202341,1.0,0.0,0.0,0.0,1.0,0.0,0.0,0.0,1.0,-1.5506556034088135,0.6926749348640442,0.19790183007717124,1.2184696791468346e-07,0.0,0.0,0.0,1.2184696791468346e-07,0.0,0.0,0.0,1.2184696791468346e-07,0.18812963366508484,0.10363389551639679,9.923129081726074,8.999999999999999e-08,0.0,0.0,0.0,8.999999999999999e-08,0.0,0.0,0.0,8.999999999999999e-08
651389000000,129998,633438096246509824,base_link,-0.020284871866331808,0.03149351671188545,0.016587271553098974,-0.9991604598102405,1.0,0.0,0.0,0.0,1.0,0.0,0.0,0.0,1.0,-1.629220962524414,0.8146832585334778,0.2357722371816634,1.2184696791468346e-07,0.0,0.0,0.0,1.2184696791468346e-07,0.0,0.0,0.0,1.2184696791468346e-07,0.2035166323184967,0.0944361761212362,10.65872573852539,8.999999999999999e-08,0.0,0.0,0.0,8.999999999999999e-08,0.0,0.0,0.0,8.999999999999999e-08
651394000000,129999,633438096254509824,base_link,-0.013722823555784228,0.027844084319599904,0.01562893651165831,-0.9993958921060222,1.0,0.0,0.0,0.0,1.0,0.0,0.0,0.0,1.0,-1.653346300125122,0.8852819204330444,0.2690231204032897,1.2184696791468346e-07,0.0,0.0,0.0,1.2184696791468346e-07,0.0,0.0,0.0,1.2184696791468346e-07,0.16139821708202362,0.13946458697319167,11.090117454528809,8.999999999999999e-08,0.0,0.0,0.0,8.999999999999999e-08,0.0,0.0,0.0,8.999999999999999e-08
651399000000,130000,633438096259509824,base_link,-0.010491373313982357,0.025928171562902665,0.015071080824768103,-0.999495190081114,1.0,0.0,0.0,0.0,1.0,0.0,0.0,0.0,1.0,-1.6419793367385864,0.9208967089653015,0.29501467943191517,1.2184696791468346e-07,0.0,0.0,0.0,1.2184696791468346e-07,0.0,0.0,0.0,1.2184696791468346e-07,0.18664520978927612,0.11214892566204206,11.0454740524292,8.999999999999999e-08,0.0,0.0,0.0,8.999999999999999e-08,0.0,0.0,0.0,8.999999999999999e-08
651403000000,130001,633438096262509824,base_link,-0.007375005042039486,0.024005296673667038,0.014461974570088633,-0.9995800738340149,1.0,0.0,0.0,0.0,1.0,0.0,0.0,0.0,1.0,-1.592668890953064,0.9407969117164612,0.3257298171520232,1.2184696791468346e-07,0.0,0.0,0.0,1.2184696791468346e-07,0.0,0.0,0.0,1.2184696791468346e-07,0.17938737571239471,0.10681466758251323,10.876705169677734,8.999999999999999e-08,0.0,0.0,0.0,8.999999999999999e-08,0.0,0.0,0.0,8.999999999999999e-08
651408000000,130002,633438096267509824,base_link,-0.004390281134331376,0.022095828433524915,0.013804399439621697,-0.9996509648332104,1.0,0.0,0.0,0.0,1.0,0.0,0.0,0.0,1.0,-1.5047348737716675,0.9362441897392273,0.3524983227252959,1.2184696791468346e-07,0.0,0.0,0.0,1.2184696791468346e-07,0.0,0.0,0.0,1.2184696791468346e-07,0.20703071355819702,0.07064001262188087,10.551271438598633,8.999999999999999e-08,0.0,0.0,0.0,8.999999999999999e-08,0.0,0.0,0.0,8.999999999999999e-08
651414000000,130003,633438096274509824,base_link,0.0008909435477608667,0.018417719720639263,0.012359310444728712,-0.9997535924093343,1.0,0.0,0.0,0.0,1.0,0.0,0.0,0.0,1.0,-1.3569411039352417,0.9121890068054199,0.38454437255859364,1.2184696791468346e-07,0.0,0.0,0.0,1.2184696791468346e-07,0.0,0.0,0.0,1.2184696791468346e-07,0.17911753058433533,0.09440559893846635,10.053564071655273,8.999999999999999e-08,0.0,0.0,0.0,8.999999999999999e-08,0.0,0.0,0.0,8.999999999999999e-08
651419000000,130004,633438096278509824,base_link,0.00320474626200323,0.016664745363196124,0.01157200731454522,-0.9997889957620834,1.0,0.0,0.0,0.0,1.0,0.0,0.0,0.0,1.0,-1.2098968029022217,0.8733027577400208,0.40753212571144093,1.2184696791468346e-07,0.0,0.0,0.0,1.2184696791468346e-07,0.0,0.0,0.0,1.2184696791468346e-07,0.21035534143447876,0.12266594916582228,9.83071517944336,8.999999999999999e-08,0.0,0.0,0.0,8.999999999999999e-08,0.0,0.0,0.0,8.999999999999999e-08
651423000000,130005,633438096283509824,base_link,0.00528132642721879,0.015004676160033412,0.010744116769245695,-0.9998157590108878,1.0,0.0,0.0,0.0,1.0,0.0,0.0,0.0,1.0,-1.0830137729644775,0.828252375125885,0.42186689376831044,1.2184696791468346e-07,0.0,0.0,0.0,1.2184696791468346e-07,0.0,0.0,0.0,1.2184696791468346e-07,0.14975573122501373,0.137390047311784,9.623868942260742,8.999999999999999e-08,0.0,0.0,0.0,8.999999999999999e-08,0.0,0.0,0.0,8.999999999999999e-08
651428000000,130006,633438096287509824,base_link,0.007072439731297237,0.013474364920362344,0.009886639136291564,-0.9998353572954454,1.0,0.0,0.0,0.0,1.0,0.0,0.0,0.0,1.0,-0.9177120923995972,0.7574377655982971,0.4386279582977294,1.2184696791468346e-07,0.0,0.0,0.0,1.2184696791468346e-07,0.0,0.0,0.0,1.2184696791468346e-07,0.15997029840946198,0.11040022224187968,9.465727806091309,8.999999999999999e-08,0.0,0.0,0.0,8.999999999999999e-08,0.0,0.0,0.0,8.999999999999999e-08
651433000000,130007,633438096291509824,base_link,0.008585239613956535,0.012122293361588356,0.009019172700240385,-0.9998490128743629,1.0,0.0,0.0,0.0,1.0,0.0,0.0,0.0,1.0,-0.7525908350944519,0.6653603911399841,0.451539933681488,1.2184696791468346e-07,0.0,0.0,0.0,1.2184696791468346e-07,0.0,0.0,0.0,1.2184696791468346e-07,0.18056805431842804,0.12233597040176505,9.335236549377441,8.999999999999999e-08,0.0,0.0,0.0,8.999999999999999e-08,0.0,0.0,0.0,8.999999999999999e-08
651439000000,130008,633438096299509824,base_link,0.010817844983976551,0.009953624760759366,0.0072091762909400345,-0.9998659980543128,1.0,0.0,0.0,0.0,1.0,0.0,0.0,0.0,1.0,-0.551403284072876,0.5313750505447389,0.46533083915710444,1.2184696791468346e-07,0.0,0.0,0.0,1.2184696791468346e-07,0.0,0.0,0.0,1.2184696791468346e-07,0.21413111686706543,0.10145512223243826,9.217004776000977,8.999999999999999e-08,0.0,0.0,0.0,8.999999999999999e-08,0.0,0.0,0.0,8.999999999999999e-08
651444000000,130009,633438096303509824,base_link,0.011540245877561289,0.009178516598933723,0.006284685168853611,-0.9998715192914678,1.0,0.0,0.0,0.0,1.0,0.0,0.0,0.0,1.0,-0.38611167669296265,0.4040194749832154,0.4706578850746154,1.2184696791468346e-07,0.0,0.0,0.0,1.2184696791468346e-07,0.0,0.0,0.0,1.2184696791468346e-07,0.24457316100597382,0.1021380797028553,9.313481330871582,8.999999999999999e-08,0.0,0.0,0.0,8.999999999999999e-08,0.0,0.0,0.0,8.999999999999999e-08
651448000000,130010,633438096307509824,base_link,0.012009126439158573,0.00862434662101858,0.005363228619859884,-0.9998762818853495,1.0,0.0,0.0,0.0,1.0,0.0,0.0,0.0,1.0,-0.24331721663475037,0.305084377527237,0.45708277821540827,1.2184696791468346e-07,0.0,0.0,0.0,1.2184696791468346e-07,0.0,0.0,0.0,1.2184696791468346e-07,0.23236359655857086,0.07831171900034066,9.459978103637695,8.999999999999999e-08,0.0,0.0,0.0,8.999999999999999e-08,0.0,0.0,0.0,8.999999999999999e-08
651453000000,130011,633438096311509824,base_link,0.011187360851691702,0.007601335429540508,0.005272402161318857,-0.9998946157644517,1.0,0.0,0.0,0.0,1.0,0.0,0.0,0.0,1.0,0.42001891136169434,0.5180716514587402,0.04066083952784532,1.2184696791468346e-07,0.0,0.0,0.0,1.2184696791468346e-07,0.0,0.0,0.0,1.2184696791468346e-07,18.561870574951172,14.26451396942139,28.68267822265625,8.999999999999999e-08,0.0,0.0,0.0,8.999999999999999e-08,0.0,0.0,0.0,8.999999999999999e-08
651458000000,130012,633438096319509824,base_link,0.006258426323983179,0.005301578358359559,0.006566436851148882,-0.9999448126610282,1.0,0.0,0.0,0.0,1.0,0.0,0.0,0.0,1.0,1.0775103569030762,0.5993486046791077,-0.27885001897811895,1.2184696791468346e-07,0.0,0.0,0.0,1.2184696791468346e-07,0.0,0.0,0.0,1.2184696791468346e-07,2.0410666465759277,10.054599761962892,20.67180824279785,8.999999999999999e-08,0.0,0.0,0.0,8.999999999999999e-08,0.0,0.0,0.0,8.999999999999999e-08
651464000000,130013,633438096323414592,base_link,0.0026878096497068593,0.0053126282824541605,0.006904707457297321,-0.9999584682399457,1.0,0.0,0.0,0.0,1.0,0.0,0.0,0.0,1.0,1.69870924949646,0.17160327732563016,-0.2542651295661926,1.2184696791468346e-07,0.0,0.0,0.0,1.2184696791468346e-07,0.0,0.0,0.0,1.2184696791468346e-07,0.20041941106319427,0.1193848401308072,10.082847595214844,8.999999999999999e-08,0.0,0.0,0.0,8.999999999999999e-08,0.0,0.0,0.0,8.999999999999999e-08
651469000000,130014,633438096327414592,base_link,-0.0006886867486575351,0.0055652206840708365,0.007242345860718036,-0.9999580889183092,1.0,0.0,0.0,0.0,1.0,0.0,0.0,0.0,1.0,1.278323769569397,-0.08830885589122774,-0.15075676143169403,1.2184696791468346e-07,0.0,0.0,0.0,1.2184696791468346e-07,0.0,0.0,0.0,1.2184696791468346e-07,2.0959222316741943,8.739997863769531,5.366844654083251,8.999999999999999e-08,0.0,0.0,0.0,8.999999999999999e-08,0.0,0.0,0.0,8.999999999999999e-08
651473000000,130015,633438096331414592,base_link,-0.0005232178921315112,0.0058069035550502085,0.007261227648850899,-0.9999566559254598,1.0,0.0,0.0,0.0,1.0,0.0,0.0,0.0,1.0,0.46435070037841797,-0.14401476085186005,-0.04860321804881094,1.2184696791468346e-07,0.0,0.0,0.0,1.2184696791468346e-07,0.0,0.0,0.0,1.2184696791468346e-07,5.1306843757629395,19.357410430908207,36.42505645751953,8.999999999999999e-08,0.0,0.0,0.0,8.999999999999999e-08,0.0,0.0,0.0,8.999999999999999e-08
651478000000,130016,633438096339414592,base_link,-0.0005080302094161597,0.0063367082093506236,0.007247487776236405,-0.9999535370586699,1.0,0.0,0.0,0.0,1.0,0.0,0.0,0.0,1.0,-0.018418729305267334,-0.15140210092067719,0.008438464254140873,1.2184696791468346e-07,0.0,0.0,0.0,1.2184696791468346e-07,0.0,0.0,0.0,1.2184696791468346e-07,-0.3026898503303528,-0.07453416287898879,11.31332778930664,8.999999999999999e-08,0.0,0.0,0.0,8.999999999999999e-08,0.0,0.0,0.0,8.999999999999999e-08
651483000000,130017,633438096343414592,base_link,-0.0005077460474609651,0.006678436503438223,0.007249679412358989,-0.9999513454225474,1.0,0.0,0.0,0.0,1.0,0.0,0.0,0.0,1.0,-0.07972948253154755,-0.1618901491165161,0.012212844565510769,1.2184696791468346e-07,0.0,0.0,0.0,1.2184696791468346e-07,0.0,0.0,0.0,1.2184696791468346e-07,-0.1263754814863205,0.08183319866657393,11.122384071350098,8.999999999999999e-08,0.0,0.0,0.0,8.999999999999999e-08,0.0,0.0,0.0,8.999999999999999e-08
651489000000,130018,633438096347414592,base_link,-0.0005082281020408083,0.007065440061721887,0.007248035685267107,-0.9999486901710912,1.0,0.0,0.0,0.0,1.0,0.0,0.0,0.0,1.0,-0.026488343253731728,-0.19248007237911224,0.002936351113021397,1.2184696791468346e-07,0.0,0.0,0.0,1.2184696791468346e-07,0.0,0.0,0.0,1.2184696791468346e-07,-0.09800650179386139,0.020271724089981465,10.934110641479492,8.999999999999999e-08,0.0,0.0,0.0,8.999999999999999e-08,0.0,0.0,0.0,8.999999999999999e-08
651494000000,130019,633438096351414592,base_link,-0.0004965356443015749,0.007499184475004133,0.007257265845090955,-0.9999454448637559,1.0,0.0,0.0,0.0,1.0,0.0,0.0,0.0,1.0,-0.0030722448136657476,-0.21518410742282867,-0.003959692083299134,1.2184696791468346e-07,0.0,0.0,0.0,1.2184696791468346e-07,0.0,0.0,0.0,1.2184696791468346e-07,-0.23781883716583252,-0.09765721857547627,10.854145050048828,8.999999999999999e-08,0.0,0.0,0.0,8.999999999999999e-08,0.0,0.0,0.0,8.999999999999999e-08
651498000000,130020,633438096359414592,base_link,-0.00044103153753526813,0.008396139217033806,0.007303795965846905,-0.9999380270184179,1.0,0.0,0.0,0.0,1.0,0.0,0.0,0.0,1.0,-0.006185831502079964,-0.2243492156267166,-0.009627307765185805,1.2184696791468346e-07,0.0,0.0,0.0,1.2184696791468346e-07,0.0,0.0,0.0,1.2184696791468346e-07,-0.22054097056388855,-0.13652838766574726,10.949082374572754,8.999999999999999e-08,0.0,0.0,0.0,8.999999999999999e-08,0.0,0.0,0.0,8.999999999999999e-08
651503000000,130021,633438096363414592,base_link,-0.00034840593539848256,0.00885051912247369,0.007351927666846393,-0.9999337280398698,1.0,0.0,0.0,0.0,1.0,0.0,0.0,0.0,1.0,-0.030118698254227638,-0.22751426696777344,-0.01853165961802003,1.2184696791468346e-07,0.0,0.0,0.0,1.2184696791468346e-07,0.0,0.0,0.0,1.2184696791468346e-07,-0.2534254491329193,-0.11463640630245074,11.023606300354004,8.999999999999999e-08,0.0,0.0,0.0,8.999999999999999e-08,0.0,0.0,0.0,8.999999999999999e-08
651508000000,130022,633438096367414592,base_link,-0.00019109545750960224,0.009281329719972874,0.007423577309314978,-0.9999293447676247,1.0,0.0,0.0,0.0,1.0,0.0,0.0,0.0,1.0,-0.06813833862543106,-0.2175096869468689,-0.0308547783643007,1.2184696791468346e-07,0.0,0.0,0.0,1.2184696791468346e-07,0.0,0.0,0.0,1.2184696791468346e-07,-0.22188344597816467,-0.13951721787452562,11.179655075073242,8.999999999999999e-08,0.0,0.0,0.0,8.999999999999999e-08,0.0,0.0,0.0,8.999999999999999e-08
651514000000,130023,633438096375414592,base_link,0.0003822340496846609,0.010004371418522912,0.0076295489579876205,-0.999920788957377,1.0,0.0,0.0,0.0,1.0,0.0,0.0,0.0,1.0,-0.13129615783691406,-0.18841607868671417,-0.04620097950100897,1.2184696791468346e-07,0.0,0.0,0.0,1.2184696791468346e-07,0.0,0.0,0.0,1.2184696791468346e-07,-0.18981711566448212,-0.12196845561265808,11.230542182922363,8.999999999999999e-08,0.0,0.0,0.0,8.999999999999999e-08,0.0,0.0,0.0,8.999999999999999e-08
651519000000,130024,633438096379414592,base_link,0.0008094480063534963,0.010287951549644653,0.007779928913474566,-0.9999164899788289,1.0,0.0,0.0,0.0,1.0,0.0,0.0,0.0,1.0,-0.1919761300086975,-0.15737876296043396,-0.06492000073194502,1.2184696791468346e-07,0.0,0.0,0.0,1.2184696791468346e-07,0.0,0.0,0.0,1.2184696791468346e-07,-0.2570657432079315,-0.11600308120250563,11.289663314819336,8.999999999999999e-08,0.0,0.0,0.0,8.999999999999999e-08,0.0,0.0,0.0,8.999999999999999e-08
651523000000,130025,633438096383414592,base_link,0.0013747715879642137,0.010505484605699538,0.00796322555764839,-0.9999121488534322,1.0,0.0,0.0,0.0,1.0,0.0,0.0,0.0,1.0,-0.25113779306411743,-0.12723805010318756,-0.08036108314990996,1.2184696791468346e-07,0.0,0.0,0.0,1.2184696791468346e-07,0.0,0.0,0.0,1.2184696791468346e-07,-0.29493311047554016,-0.07296957820653775,11.429774284362793,8.999999999999999e-08,0.0,0.0,0.0,8.999999999999999e-08,0.0,0.0,0.0,8.999999999999999e-08
651528000000,130026,633438096387414592,base_link,0.002052446484631577,0.010666240917726437,0.008175477086749317,-0.9999075969937932,1.0,0.0,0.0,0.0,1.0,0.0,0.0,0.0,1.0,-0.32575511932373047,-0.08796418458223344,-0.0989599823951721,1.2184696791468346e-07,0.0,0.0,0.0,1.2184696791468346e-07,0.0,0.0,0.0,1.2184696791468346e-07,-0.3311261832714081,-0.12228845059871533,11.444746971130371,8.999999999999999e-08,0.0,0.0,0.0,8.999999999999999e-08,0.0,0.0,0.0,8.999999999999999e-08
651533000000,130027,633438096391414592,base_link,0.002840961336709766,0.010748153317807358,0.008427220212904818,-0.9999027501062143,1.0,0.0,0.0,0.0,1.0,0.0,0.0,0.0,1.0,-0.3992256820201874,-0.04474544525146486,-0.12427851557731628,1.2184696791468346e-07,0.0,0.0,0.0,1.2184696791468346e-07,0.0,0.0,0.0,1.2184696791468346e-07,-0.1121562272310257,-0.2317238748073564,11.285042762756348,8.999999999999999e-08,0.0,0.0,0.0,8.999999999999999e-08,0.0,0.0,0.0,8.999999999999999e-08
651539000000,130028,633438096399414592,base_link,0.004752911631102471,0.010699408511870985,0.009131451904673349,-0.9998898110237215,1.0,0.0,0.0,0.0,1.0,0.0,0.0,0.0,1.0,-0.478654146194458,0.01068239752203224,-0.16890402138233185,1.2184696791468346e-07,0.0,0.0,0.0,1.2184696791468346e-07,0.0,0.0,0.0,1.2184696791468346e-07,0.20687909424304962,0.05186798423528802,10.667423248291016,8.999999999999999e-08,0.0,0.0,0.0,8.999999999999999e-08,0.0,0.0,0.0,8.999999999999999e-08
651544000000,130029,633438096403414592,base_link,0.00579945788620683,0.01054129279868497,0.009582296743194385,-0.9998817609756558,1.0,0.0,0.0,0.0,1.0,0.0,0.0,0.0,1.0,-0.5282667875289917,0.06604785472154615,-0.21355485916137695,1.2184696791468346e-07,0.0,0.0,0.0,1.2184696791468346e-07,0.0,0.0,0.0,1.2184696791468346e-07,0.16525094211101532,0.04542091861367355,10.542908668518066,8.999999999999999e-08,0.0,0.0,0.0,8.999999999999999e-08,0.0,0.0,0.0,8.999999999999999e-08
651549000000,130030,633438096407414592,base_link,0.006906173871280427,0.0102683771373255,0.010111071104612068,-0.9998723200815894,1.0,0.0,0.0,0.0,1.0,0.0,0.0,0.0,1.0,-0.5546058416366577,0.12124977260828015,-0.24907064437866214,1.2184696791468346e-07,0.0,0.0,0.0,1.2184696791468346e-07,0.0,0.0,0.0,1.2184696791468346e-07,0.157520592212677,0.0659053102135671,10.4221830368042,8.999999999999999e-08,0.0,0.0,0.0,8.999999999999999e-08,0.0,0.0,0.0,8.999999999999999e-08
651553000000,130031,633438096411414592,base_link,0.008030811733548455,0.009857049661413049,0.010702475682916934,-0.9998619519568557,1.0,0.0,0.0,0.0,1.0,0.0,0.0,0.0,1.0,-0.5657791495323181,0.20340630412101743,-0.28829270601272583,1.2184696791468346e-07,0.0,0.0,0.0,1.2184696791468346e-07,0.0,0.0,0.0,1.2184696791468346e-07,0.1770372837781906,0.11055555194616443,10.244303703308105,8.999999999999999e-08,0.0,0.0,0.0,8.999999999999999e-08,0.0,0.0,0.0,8.999999999999999e-08
651558000000,130032,633438096419414592,base_link,0.010207132662719236,0.008554677880430073,0.012057918331027262,-0.9998386026027807,1.0,0.0,0.0,0.0,1.0,0.0,0.0,0.0,1.0,-0.5587322115898132,0.30402505397796625,-0.32601255178451544,1.2184696791468346e-07,0.0,0.0,0.0,1.2184696791468346e-07,0.0,0.0,0.0,1.2184696791468346e-07,0.17511317133903503,0.00398823851719617,9.667648315429688,8.999999999999999e-08,0.0,0.0,0.0,8.999999999999999e-08,0.0,0.0,0.0,8.999999999999999e-08
651563000000,130033,633438096423319360,base_link,0.011202075040905814,0.007640636377960155,0.012793549424936379,-0.9998262114293186,1.0,0.0,0.0,0.0,1.0,0.0,0.0,0.0,1.0,-0.5266340970993042,0.41452020406723017,-0.3541379570960999,1.2184696791468346e-07,0.0,0.0,0.0,1.2184696791468346e-07,0.0,0.0,0.0,1.2184696791468346e-07,0.17171035706996918,0.05421513691544646,9.25948429107666,8.999999999999999e-08,0.0,0.0,0.0,8.999999999999999e-08,0.0,0.0,0.0,8.999999999999999e-08
651569000000,130034,633438096427319360,base_link,0.012096490270676576,0.006543581734727045,0.013589071190579616,-0.9998131037594317,1.0,0.0,0.0,0.0,1.0,0.0,0.0,0.0,1.0,-0.4565005600452423,0.5562793612480164,-0.3915992379188538,1.2184696791468346e-07,0.0,0.0,0.0,1.2184696791468346e-07,0.0,0.0,0.0,1.2184696791468346e-07,0.19981428980827332,0.04299419000744931,9.045936584472656,8.999999999999999e-08,0.0,0.0,0.0,8.999999999999999e-08,0.0,0.0,0.0,8.999999999999999e-08
651574000000,130035,633438096435319360,base_link,0.013440320803477668,0.0037444178886667494,0.015330789705292225,-0.999785160398869,1.0,0.0,0.0,0.0,1.0,0.0,0.0,0.0,1.0,-0.3713921904563904,0.6845453381538391,-0.4222181737422944,1.2184696791468346e-07,0.0,0.0,0.0,1.2184696791468346e-07,0.0,0.0,0.0,1.2184696791468346e-07,0.1374564915895462,0.06276886165142163,8.48736572265625,8.999999999999999e-08,0.0,0.0,0.0,8.999999999999999e-08,0.0,0.0,0.0,8.999999999999999e-08
651578000000,130036,633438096439319360,base_link,0.013844055014258888,0.0020236776385280974,0.016276902160664797,-0.999769650358617,1.0,0.0,0.0,0.0,1.0,0.0,0.0,0.0,1.0,-0.2869287133216858,0.7885921001434326,-0.4446576237678529,1.2184696791468346e-07,0.0,0.0,0.0,1.2184696791468346e-07,0.0,0.0,0.0,1.2184696791468346e-07,0.16564761102199554,0.07557161152362925,8.291387557983398,8.999999999999999e-08,0.0,0.0,0.0,8.999999999999999e-08,0.0,0.0,0.0,8.999999999999999e-08
651583000000,130037,633438096443319360,base_link,0.014046133347800435,7.107341602409395e-05,0.017294706405354354,-0.9997518222416968,1.0,0.0,0.0,0.0,1.0,0.0,0.0,0.0,1.0,-0.1645495891571045,0.9167948961257933,-0.4738556742668153,1.2184696791468346e-07,0.0,0.0,0.0,1.2184696791468346e-07,0.0,0.0,0.0,1.2184696791468346e-07,0.1715753823518753,0.05227480083704096,8.269196510314941,8.999999999999999e-08,0.0,0.0,0.0,8.999999999999999e-08,0.0,0.0,0.0,8.999999999999999e-08
651588000000,130038,633438096447319360,base_link,0.013837725084448157,-0.001899049407481265,0.018257466865888694,-0.9997357642924141,1.0,0.0,0.0,0.0,1.0,0.0,0.0,0.0,1.0,0.064808689057827,0.9724212288856505,-0.46200188994407665,1.2184696791468346e-07,0.0,0.0,0.0,1.2184696791468346e-07,0.0,0.0,0.0,1.2184696791468346e-07,-0.18201729655265808,3.9140036106109632,12.466808319091797,8.999999999999999e-08,0.0,0.0,0.0,8.999999999999999e-08,0.0,0.0,0.0,8.999999999999999e-08
651594000000,130039,633438096455319360,base_link,0.011676516023056248,-0.005632397821513272,0.019858836375060196,-0.9997187791124642,1.0,0.0,0.0,0.0,1.0,0.0,0.0,0.0,1.0,0.4502561092376709,0.9663267135620117,-0.40167105197906505,1.2184696791468346e-07,0.0,0.0,0.0,1.2184696791468346e-07,0.0,0.0,0.0,1.2184696791468346e-07,0.15497763454914093,0.04479114338755717,8.957186698913574,8.999999999999999e-08,0.0,0.0,0.0,8.999999999999999e-08,0.0,0.0,0.0,8.999999999999999e-08
651599000000,130040,633438096459319360,base_link,0.01018222403988542,-0.007770054861757815,0.020698359450548653,-0.9997037326875459,1.0,0.0,0.0,0.0,1.0,0.0,0.0,0.0,1.0,0.6739985346794128,1.0422816276550293,-0.394190937280655,1.2184696791468346e-07,0.0,0.0,0.0,1.2184696791468346e-07,0.0,0.0,0.0,1.2184696791468346e-07,0.17837080359458923,0.03778700530529139,9.518918991088867,8.999999999999999e-08,0.0,0.0,0.0,8.999999999999999e-08,0.0,0.0,0.0,8.999999999999999e-08
651604000000,130041,633438096463319360,base_link,0.008376370698720924,-0.010063833048509822,0.02156026250259646,-0.9996818163263201,1.0,0.0,0.0,0.0,1.0,0.0,0.0,0.0,1.0,0.8566822409629822,1.1439659595489502,-0.40531393885612504,1.2184696791468346e-07,0.0,0.0,0.0,1.2184696791468346e-07,0.0,0.0,0.0,1.2184696791468346e-07,0.1578551083803177,0.09216605126857882,10.168652534484863,8.999999999999999e-08,0.0,0.0,0.0,8.999999999999999e-08,0.0,0.0,0.0,8.999999999999999e-08
651608000000,130042,633438096467319360,base_link,0.006280226822534468,-0.012459571211890888,0.022450403943146513,-0.999650627658422,1.0,0.0,0.0,0.0,1.0,0.0,0.0,0.0,1.0,0.9997570514678955,1.213413953781128,-0.4182997047901155,1.2184696791468346e-07,0.0,0.0,0.0,1.2184696791468346e-07,0.0,0.0,0.0,1.2184696791468346e-07,0.1445663422346115,0.07168260216713085,10.846892356872559,8.999999999999999e-08,0.0,0.0,0.0,8.999999999999999e-08,0.0,0.0,0.0,8.999999999999999e-08
651613000000,130043,633438096471319360,base_link,0.0038925146703444415,-0.014925747625118039,0.023349311928186844,-0.9996083965162144,1.0,0.0,0.0,0.0,1.0,0.0,0.0,0.0,1.0,1.18384850025177,1.2797157764434814,-0.4292655289173128,1.2184696791468346e-07,0.0,0.0,0.0,1.2184696791468346e-07,0.0,0.0,0.0,1.2184696791468346e-07,0.13644342124462128,0.09562373161316061,11.696922302246094,8.999999999999999e-08,0.0,0.0,0.0,8.999999999999999e-08,0.0,0.0,0.0,8.999999999999999e-08
651618000000,130044,633438096479319360,base_link,-0.0017684277628674003,-0.02010998812824741,0.025169297140584246,-0.999479342866074,1.0,0.0,0.0,0.0,1.0,0.0,0.0,0.0,1.0,1.3632729053497314,1.3305943012237549,-0.4310995042324068,1.2184696791468346e-07,0.0,0.0,0.0,1.2184696791468346e-07,0.0,0.0,0.0,1.2184696791468346e-07,0.1562713384628296,0.045961569994689595,12.762073516845703,8.999999999999999e-08,0.0,0.0,0.0,8.999999999999999e-08,0.0,0.0,0.0,8.999999999999999e-08
651624000000,130045,633438096483319360,base_link,-0.004473982799840493,-0.022236814251605293,0.025940921643121673,-0.9994061759370589,1.0,0.0,0.0,0.0,1.0,0.0,0.0,0.0,1.0,1.2878111600875854,1.0745716094970703,-0.3550194501876832,1.2184696791468346e-07,0.0,0.0,0.0,1.2184696791468346e-07,0.0,0.0,0.0,1.2184696791468346e-07,12.904828071594238,-5.095661163330075,26.81123161315918,8.999999999999999e-08,0.0,0.0,0.0,8.999999999999999e-08,0.0,0.0,0.0,8.999999999999999e-08
651629000000,130046,633438096487319360,base_link,-0.005859090902401943,-0.02276562615005992,0.026274134627448875,-0.9993783590170418,1.0,0.0,0.0,0.0,1.0,0.0,0.0,0.0,1.0,0.8886893391609192,0.5030345916748047,-0.2060570269823075,1.2184696791468346e-07,0.0,0.0,0.0,1.2184696791468346e-07,0.0,0.0,0.0,1.2184696791468346e-07,4.665247440338135,-1.8682323694229104,17.97600746154785,8.999999999999999e-08,0.0,0.0,0.0,8.999999999999999e-08,0.0,0.0,0.0,8.999999999999999e-08
651633000000,130047,633438096491319360,base_link,-0.00739799417226866,-0.023269251355262248,0.026597653836618496,-0.9993480132861139,1.0,0.0,0.0,0.0,1.0,0.0,0.0,0.0,1.0,0.7675798535346985,0.2720452845096588,-0.14460195600986483,1.2184696791468346e-07,0.0,0.0,0.0,1.2184696791468346e-07,0.0,0.0,0.0,1.2184696791468346e-07,0.1951604187488556,0.016296049579979596,13.111902236938477,8.999999999999999e-08,0.0,0.0,0.0,8.999999999999999e-08,0.0,0.0,0.0,8.999999999999999e-08
651638000000,130048,633438096499319360,base_link,-0.010783445047262289,-0.0240729179993801,0.027192219428561704,-0.9992821377618915,1.0,0.0,0.0,0.0,1.0,0.0,0.0,0.0,1.0,0.7904468178749084,0.1865555793046951,-0.12074076384305957,1.2184696791468346e-07,0.0,0.0,0.0,1.2184696791468346e-07,0.0,0.0,0.0,1.2184696791468346e-07,0.11292576789855957,0.07442054897546928,13.066376686096191,8.999999999999999e-08,0.0,0.0,0.0,8.999999999999999e-08,0.0,0.0,0.0,8.999999999999999e-08
651643000000,130049,633438096503319360,base_link,-0.012576032173949602,-0.024340882393856303,0.02744054865998785,-0.9992479145209006,1.0,0.0,0.0,0.0,1.0,0.0,0.0,0.0,1.0,0.859804630279541,0.15971261262893677,-0.10781636089086534,1.2184696791468346e-07,0.0,0.0,0.0,1.2184696791468346e-07,0.0,0.0,0.0,1.2184696791468346e-07,0.10977941751480103,0.04122290015220801,12.991118431091309,8.999999999999999e-08,0.0,0.0,0.0,8.999999999999999e-08,0.0,0.0,0.0,8.999999999999999e-08
651648000000,130050,633438096507319360,base_link,-0.014467339402922825,-0.024498459911543168,0.027674758697162904,-0.9992120475528178,1.0,0.0,0.0,0.0,1.0,0.0,0.0,0.0,1.0,0.8954330086708069,0.11175206303596495,-0.0924799218773842,1.2184696791468346e-07,0.0,0.0,0.0,1.2184696791468346e-07,0.0,0.0,0.0,1.2184696791468346e-07,0.12507329881191254,0.04939594492316404,12.931158065795898,8.999999999999999e-08,0.0,0.0,0.0,8.999999999999999e-08,0.0,0.0,0.0,8.999999999999999e-08
651654000000,130051,633438096515319360,base_link,-0.01786302307175374,-0.024441812900783254,0.02800653868864067,-0.9991492487485365,1.0,0.0,0.0,0.0,1.0,0.0,0.0,0.0,1.0,0.8788692355155945,0.027122957631945603,-0.06765168160200119,1.2184696791468346e-07,0.0,0.0,0.0,1.2184696791468346e-07,0.0,0.0,0.0,1.2184696791468346e-07,0.1434158831834793,0.057855729013682924,12.351078033447266,8.999999999999999e-08,0.0,0.0,0.0,8.999999999999999e-08,0.0,0.0,0.0,8.999999999999999e-08
651659000000,130052,633438096519319360,base_link,-0.019466938184720766,-0.024205102040839154,0.02813715177217596,-0.9991213896816709,1.0,0.0,0.0,0.0,1.0,0.0,0.0,0.0,1.0,0.8301907777786255,-0.059719711542129524,-0.048442680388689034,1.2184696791468346e-07,0.0,0.0,0.0,1.2184696791468346e-07,0.0,0.0,0.0,1.2184696791468346e-07,0.09503714740276337,0.033196341246367965,11.930953025817871,8.999999999999999e-08,0.0,0.0,0.0,8.999999999999999e-08,0.0,0.0,0.0,8.999999999999999e-08
651664000000,130053,633438096523224128,base_link,-0.020963730990660658,-0.023812201051850376,0.028226250209927917,-0.9990980403275957,1.0,0.0,0.0,0.0,1.0,0.0,0.0,0.0,1.0,0.7768155336380005,-0.13636882603168488,-0.031194070354104025,1.2184696791468346e-07,0.0,0.0,0.0,1.2184696791468346e-07,0.0,0.0,0.0,1.2184696791468346e-07,0.15647831559181213,0.06956642866134784,11.49475383758545,8.999999999999999e-08,0.0,0.0,0.0,8.999999999999999e-08,0.0,0.0,0.0,8.999999999999999e-08
651668000000,130054,633438096527224128,base_link,-0.022273313381256696,-0.02326516578629375,0.028270883722501028,-0.9990813080287371,1.0,0.0,0.0,0.0,1.0,0.0,0.0,0.0,1.0,0.6908260583877563,-0.23902134597301483,-0.005443434696644515,1.2184696791468346e-07,0.0,0.0,0.0,1.2184696791468346e-07,0.0,0.0,0.0,1.2184696791468346e-07,0.16796137392520905,0.030295748263598845,11.083366394042969,8.999999999999999e-08,0.0,0.0,0.0,8.999999999999999e-08,0.0,0.0,0.0,8.999999999999999e-08
651673000000,130055,633438096531224128,base_link,-0.023434934115276272,-0.022548984557473686,0.028273033211775045,-0.9990710663445488,1.0,0.0,0.0,0.0,1.0,0.0,0.0,0.0,1.0,0.59256511926651,-0.34822094440460205,0.02250558137893681,1.2184696791468346e-07,0.0,0.0,0.0,1.2184696791468346e-07,0.0,0.0,0.0,1.2184696791468346e-07,0.17146287858486176,0.06278764456510676,10.725332260131836,8.999999999999999e-08,0.0,0.0,0.0,8.999999999999999e-08,0.0,0.0,0.0,8.999999999999999e-08
651679000000,130056,633438096539224128,base_link,-0.02523075383115811,-0.02054241479396918,0.028154979889095988,-0.999073974477096,1.0,0.0,0.0,0.0,1.0,0.0,0.0,0.0,1.0,0.45745497941970825,-0.49009212851524353,0.052649233490228715,1.2184696791468346e-07,0.0,0.0,0.0,1.2184696791468346e-07,0.0,0.0,0.0,1.2184696791468346e-07,0.1236228346824646,0.013271940872074426,10.223369598388672,8.999999999999999e-08,0.0,0.0,0.0,8.999999999999999e-08,0.0,0.0,0.0,8.999999999999999e-08
651684000000,130057,633438096543224128,base_link,-0.025822304606343747,-0.019254982671376236,0.028044892320785553,-0.9990875457623165,1.0,0.0,0.0,0.0,1.0,0.0,0.0,0.0,1.0,0.3320925235748291,-0.6094802021980286,0.07548880577087409,1.2184696791468346e-07,0.0,0.0,0.0,1.2184696791468346e-07,0.0,0.0,0.0,1.2184696791468346e-07,0.15476392209529877,0.025909559801222122,10.033039093017578,8.999999999999999e-08,0.0,0.0,0.0,8.999999999999999e-08,0.0,0.0,0.0,8.999999999999999e-08
651689000000,130058,633438096546224128,base_link,-0.026199946295901933,-0.017806858444845922,0.02789687258881529,-0.999108703480269,1.0,0.0,0.0,0.0,1.0,0.0,0.0,0.0,1.0,0.20215967297554016,-0.7274252772331238,0.09709854423999795,1.2184696791468346e-07,0.0,0.0,0.0,1.2184696791468346e-07,0.0,0.0,0.0,1.2184696791468346e-07,0.14725656807422638,0.040885228663684145,9.875988960266113,8.999999999999999e-08,0.0,0.0,0.0,8.999999999999999e-08,0.0,0.0,0.0,8.999999999999999e-08
651693000000,130059,633438096551224128,base_link,-0.026358697998446534,-0.016152691776108258,0.027720867349433853,-0.9991376162183476,1.0,0.0,0.0,0.0,1.0,0.0,0.0,0.0,1.0,0.09538798034191132,-0.8174431324005127,0.11485587060451517,1.2184696791468346e-07,0.0,0.0,0.0,1.2184696791468346e-07,0.0,0.0,0.0,1.2184696791468346e-07,0.12091431021690369,-0.003637779969720819,9.90854263305664,8.999999999999999e-08,0.0,0.0,0.0,8.999999999999999e-08,0.0,0.0,0.0,8.999999999999999e-08
651698000000,130060,633438096559224128,base_link,-0.02603822291126506,-0.012363430299170487,0.027244481520715125,-0.9992131855177275,1.0,0.0,0.0,0.0,1.0,0.0,0.0,0.0,1.0,-0.0364728607237339,-0.9266250729560852,0.13933038711547863,1.2184696791468346e-07,0.0,0.0,0.0,1.2184696791468346e-07,0.0,0.0,0.0,1.2184696791468346e-07,0.16267725825309753,0.016316829249264073,10.298108100891113,8.999999999999999e-08,0.0,0.0,0.0,8.999999999999999e-08,0.0,0.0,0.0,8.999999999999999e-08
651703000000,130061,633438096563224128,base_link,-0.025554798558845102,-0.010192946626200404,0.026940349861860613,-0.9992583669393313,1.0,0.0,0.0,0.0,1.0,0.0,0.0,0.0,1.0,-0.16724148392677307,-1.0384235382080078,0.16692692041397109,1.2184696791468346e-07,0.0,0.0,0.0,1.2184696791468346e-07,0.0,0.0,0.0,1.2184696791468346e-07,0.16626612842082977,0.04362093284726273,10.662442207336426,8.999999999999999e-08,0.0,0.0,0.0,8.999999999999999e-08,0.0,0.0,0.0,8.999999999999999e-08
651709000000,130062,633438096567224128,base_link,-0.02489377067952278,-0.007863995412640911,0.026579488544910324,-0.9993058242907545,1.0,0.0,0.0,0.0,1.0,0.0,0.0,0.0,1.0,-0.3104342818260193,-1.1671655178070068,0.20956644415855422,1.2184696791468346e-07,0.0,0.0,0.0,1.2184696791468346e-07,0.0,0.0,0.0,1.2184696791468346e-07,0.09925848245620728,0.01391937583685055,10.924511909484863,8.999999999999999e-08,0.0,0.0,0.0,8.999999999999999e-08,0.0,0.0,0.0,8.999999999999999e-08
