%time,field.header.seq,field.header.stamp,field.header.frame_id,field.orientation.x,field.orientation.y,field.orientation.z,field.orientation.w,field.orientation_covariance0,field.orientation_covariance1,field.orientation_covariance2,field.orientation_covariance3,field.orientation_covariance4,field.orientation_covariance5,field.orientation_covariance6,field.orientation_covariance7,field.orientation_covariance8,field.angular_velocity.x,field.angular_velocity.y,field.angular_velocity.z,field.angular_velocity_covariance0,field.angular_velocity_covariance1,field.angular_velocity_covariance2,field.angular_velocity_covariance3,field.angular_velocity_covariance4,field.angular_velocity_covariance5,field.angular_velocity_covariance6,field.angular_velocity_covariance7,field.angular_velocity_covariance8,field.linear_acceleration.x,field.linear_acceleration.y,field.linear_acceleration.z,field.linear_acceleration_covariance0,field.linear_acceleration_covariance1,field.linear_acceleration_covariance2,field.linear_acceleration_covariance3,field.linear_acceleration_covariance4,field.linear_acceleration_covariance5,field.linear_acceleration_covariance6,field.linear_acceleration_covariance7,field.linear_acceleration_covariance8
1758792835845973912,35961,1758792835667707968,base_link,-0.008291474433474213,-0.0015862084975085799,0.018038598281571675,-0.9998017241103337,1.0,0.0,0.0,0.0,1.0,0.0,0.0,0.0,1.0,0.003406302537769079,0.0001351833343505855,-0.0035000182688236237,1.2184696791468346e-07,0.0,0.0,0.0,1.2184696791468346e-07,0.0,0.0,0.0,1.2184696791468346e-07,-0.044272128492593765,0.10360930114984632,9.796195983886719,8.999999999999999e-08,0.0,0.0,0.0,8.999999999999999e-08,0.0,0.0,0.0,8.999999999999999e-08
1758792835846016312,35962,1758792835678707968,base_link,-0.008311849471278944,-0.0015914324018181526,0.01806295916001096,-0.9998010497607575,1.0,0.0,0.0,0.0,1.0,0.0,0.0,0.0,1.0,0.001093096099793911,0.0018548276275396347,-0.0008814450120553376,1.2184696791468346e-07,0.0,0.0,0.0,1.2184696791468346e-07,0.0,0.0,0.0,1.2184696791468346e-07,-0.021174650639295578,0.2084534317255032,9.786232948303223,8.999999999999999e-08,0.0,0.0,0.0,8.999999999999999e-08,0.0,0.0,0.0,8.999999999999999e-08
1758792835846228056,35963,1758792835682707968,base_link,-0.008300773411199183,-0.0015985005600223311,0.018039441218541896,-0.9998015555229397,1.0,0.0,0.0,0.0,1.0,0.0,0.0,0.0,1.0,0.0009069042280316353,-0.00020148698240518524,0.003862375859171152,1.2184696791468346e-07,0.0,0.0,0.0,1.2184696791468346e-07,0.0,0.0,0.0,1.2184696791468346e-07,-0.021282773464918137,0.2443159669637692,9.827649116516113,8.999999999999999e-08,0.0,0.0,0.0,8.999999999999999e-08,0.0,0.0,0.0,8.999999999999999e-08
1758792835846330456,35964,1758792835693707968,base_link,-0.008312496491258037,-0.001577933227221269,0.01803880901581423,-0.9998015133760911,1.0,0.0,0.0,0.0,1.0,0.0,0.0,0.0,1.0,0.000998122151941061,-0.0011134818196296696,-0.0028555546887218952,1.2184696791468346e-07,0.0,0.0,0.0,1.2184696791468346e-07,0.0,0.0,0.0,1.2184696791468346e-07,-0.0824768990278244,0.09068140387535216,9.81491470336914,8.999999999999999e-08,0.0,0.0,0.0,8.999999999999999e-08,0.0,0.0,0.0,8.999999999999999e-08
1758792835846422392,35965,1758792835706705408,base_link,-0.008303758922726123,-0.0015802440598997802,0.018045847539515523,-0.9998014712292427,1.0,0.0,0.0,0.0,1.0,0.0,0.0,0.0,1.0,0.00088505819439888,0.00024251220747828522,0.0030146189965307713,1.2184696791468346e-07,0.0,0.0,0.0,1.2184696791468346e-07,0.0,0.0,0.0,1.2184696791468346e-07,-0.023152705281972885,0.19048209488391996,9.79450798034668,8.999999999999999e-08,0.0,0.0,0.0,8.999999999999999e-08,0.0,0.0,0.0,8.999999999999999e-08
1758792835846433976,35966,1758792835712705408,base_link,-0.008310937057863134,-0.0015837066869227533,0.018026038520715434,-0.9998018084040308,1.0,0.0,0.0,0.0,1.0,0.0,0.0,0.0,1.0,0.00113779422827065,-0.0012566717341542242,0.0016246971208602192,1.2184696791468346e-07,0.0,0.0,0.0,1.2184696791468346e-07,0.0,0.0,0.0,1.2184696791468346e-07,-0.04516002535820007,0.10250864923000455,9.796910285949707,8.999999999999999e-08,0.0,0.0,0.0,8.999999999999999e-08,0.0,0.0,0.0,8.999999999999999e-08
1758792835846481016,35967,1758792835723705408,base_link,-0.008317473441377118,-0.0015755799184219929,0.018046648329637233,-0.9998013447886971,1.0,0.0,0.0,0.0,1.0,0.0,0.0,0.0,1.0,0.0038436721079051495,-0.00022836308926343942,-0.001961519941687584,1.2184696791468346e-07,0.0,0.0,0.0,1.2184696791468346e-07,0.0,0.0,0.0,1.2184696791468346e-07,0.0201122984290123,0.1968274861574185,9.839585304260254,8.999999999999999e-08,0.0,0.0,0.0,8.999999999999999e-08,0.0,0.0,0.0,8.999999999999999e-08
1758792835846512600,35968,1758792835727705408,base_link,-0.008313289049573394,-0.0015793435002851139,0.01802882021271711,-0.9998017241103337,1.0,0.0,0.0,0.0,1.0,0.0,0.0,0.0,1.0,-0.0006548559758812189,0.0015198371838778264,0.004543757997453213,1.2184696791468346e-07,0.0,0.0,0.0,1.2184696791468346e-07,0.0,0.0,0.0,1.2184696791468346e-07,-0.039476074278354645,0.1890890896320355,9.840594291687012,8.999999999999999e-08,0.0,0.0,0.0,8.999999999999999e-08,0.0,0.0,0.0,8.999999999999999e-08
1758792835846529848,35969,1758792835736705408,base_link,-0.008324935409197069,-0.0015941673371598047,0.018025532758533303,-0.9998016398166367,1.0,0.0,0.0,0.0,1.0,0.0,0.0,0.0,1.0,0.0006593500729650259,0.0032034311443567276,0.0005919574177823956,1.2184696791468346e-07,0.0,0.0,0.0,1.2184696791468346e-07,0.0,0.0,0.0,1.2184696791468346e-07,-0.08877992630004883,0.1469084471464169,9.785991668701172,8.999999999999999e-08,0.0,0.0,0.0,8.999999999999999e-08,0.0,0.0,0.0,8.999999999999999e-08
1758792835846583384,35970,1758792835742705408,base_link,-0.008318025960219314,-0.0016001936779523548,0.018035395121084836,-0.9998014712292426,1.0,0.0,0.0,0.0,1.0,0.0,0.0,0.0,1.0,-0.0002912303898483515,0.0008578517008572817,0.00022866349900141348,1.2184696791468346e-07,0.0,0.0,0.0,1.2184696791468346e-07,0.0,0.0,0.0,1.2184696791468346e-07,0.004683297127485275,0.17357780039310575,9.807583808898926,8.999999999999999e-08,0.0,0.0,0.0,8.999999999999999e-08,0.0,0.0,0.0,8.999999999999999e-08
1758792835846631576,35971,1758792835753705408,base_link,-0.008314155035601392,-0.0015826256861128996,0.01801360520040467,-0.9998019348445762,1.0,0.0,0.0,0.0,1.0,0.0,0.0,0.0,1.0,-0.00010251742787659168,-0.0037408694624900814,0.003625783603638411,1.2184696791468346e-07,0.0,0.0,0.0,1.2184696791468346e-07,0.0,0.0,0.0,1.2184696791468346e-07,-0.03693548962473869,0.11411353200674176,9.797362327575684,8.999999999999999e-08,0.0,0.0,0.0,8.999999999999999e-08,0.0,0.0,0.0,8.999999999999999e-08
1758792835846659928,35972,1758792835757705408,base_link,-0.0083147332376794,-0.0015805782712375815,0.01800821040379531,-0.9998020191382733,1.0,0.0,0.0,0.0,1.0,0.0,0.0,0.0,1.0,0.0015034608077257872,0.0005299889016896483,-0.0024961153976619244,1.2184696791468346e-07,0.0,0.0,0.0,1.2184696791468346e-07,0.0,0.0,0.0,1.2184696791468346e-07,-0.037994030863046646,0.1471252441406262,9.815838813781738,8.999999999999999e-08,0.0,0.0,0.0,8.999999999999999e-08,0.0,0.0,0.0,8.999999999999999e-08
1758792835846681368,35973,1758792835772705408,base_link,-0.00832667034470335,-0.0015849967756138919,0.018007325319976578,-0.9998019769914247,1.0,0.0,0.0,0.0,1.0,0.0,0.0,0.0,1.0,0.002319145016372204,0.0013998905196785931,0.0035122125409543514,1.2184696791468346e-07,0.0,0.0,0.0,1.2184696791468346e-07,0.0,0.0,0.0,1.2184696791468346e-07,-0.03875177726149559,0.15926256775856137,9.782597541809082,8.999999999999999e-08,0.0,0.0,0.0,8.999999999999999e-08,0.0,0.0,0.0,8.999999999999999e-08
1758792835846725560,35974,1758792835783705408,base_link,-0.008324495830737992,-0.0015700675716179232,0.018018409941134933,-0.9998017662571822,1.0,0.0,0.0,0.0,1.0,0.0,0.0,0.0,1.0,1.6688834875822067e-05,-0.0025081252679228783,-0.0006389399059116837,1.2184696791468346e-07,0.0,0.0,0.0,1.2184696791468346e-07,0.0,0.0,0.0,1.2184696791468346e-07,-0.04560524597764015,0.12604708969593167,9.80687427520752,8.999999999999999e-08,0.0,0.0,0.0,8.999999999999999e-08,0.0,0.0,0.0,8.999999999999999e-08
1758792835846777688,35975,1758792835787705408,base_link,-0.008313561686999699,-0.0015827514681139247,0.01801470101846596,-0.9998019348445762,1.0,0.0,0.0,0.0,1.0,0.0,0.0,0.0,1.0,0.0005072471685707569,-0.0006162011995911599,-0.000556367915123701,1.2184696791468346e-07,0.0,0.0,0.0,1.2184696791468346e-07,0.0,0.0,0.0,1.2184696791468346e-07,-0.003942692652344704,0.21061259508133054,9.826711654663086,8.999999999999999e-08,0.0,0.0,0.0,8.999999999999999e-08,0.0,0.0,0.0,8.999999999999999e-08
1758792835846790872,35976,1758792835798705408,base_link,-0.008323295633372193,-0.0015750484730040505,0.018015248927496605,-0.9998018084040308,1.0,0.0,0.0,0.0,1.0,0.0,0.0,0.0,1.0,-0.0007130138110369444,-0.0015998813323676586,0.0002489038743078711,1.2184696791468346e-07,0.0,0.0,0.0,1.2184696791468346e-07,0.0,0.0,0.0,1.2184696791468346e-07,-0.06715719401836395,0.10135363042354704,9.802292823791504,8.999999999999999e-08,0.0,0.0,0.0,8.999999999999999e-08,0.0,0.0,0.0,8.999999999999999e-08
1758792835846801720,35977,1758792835802705920,base_link,-0.008317298597810248,-0.0015785865033731878,0.01801950575919622,-0.9998018505508792,1.0,0.0,0.0,0.0,1.0,0.0,0.0,0.0,1.0,-0.0017477760557085276,-0.0008633518591523177,-0.005471290089190006,1.2184696791468346e-07,0.0,0.0,0.0,1.2184696791468346e-07,0.0,0.0,0.0,1.2184696791468346e-07,-0.06979989260435104,0.12610261142253995,9.814346313476562,8.999999999999999e-08,0.0,0.0,0.0,8.999999999999999e-08,0.0,0.0,0.0,8.999999999999999e-08
1758792835847035832,35978,1758792835817705920,base_link,-0.008313714140053297,-0.0015676605914412463,0.01804041059605765,-0.9998015133760911,1.0,0.0,0.0,0.0,1.0,0.0,0.0,0.0,1.0,0.00016805250197649002,0.0006012951489537955,0.00046687695430591697,1.2184696791468346e-07,0.0,0.0,0.0,1.2184696791468346e-07,0.0,0.0,0.0,1.2184696791468346e-07,-0.06559856235980988,0.1826665699481976,9.806653022766113,8.999999999999999e-08,0.0,0.0,0.0,8.999999999999999e-08,0.0,0.0,0.0,8.999999999999999e-08
1758792835847059000,35979,1758792835827705920,base_link,-0.008319462904335733,-0.0015759948014620218,0.018043065847513792,-0.9998013869355457,1.0,0.0,0.0,0.0,1.0,0.0,0.0,0.0,1.0,0.0012020196299999952,0.0005246221553534267,-0.0017578700790181756,1.2184696791468346e-07,0.0,0.0,0.0,1.2184696791468346e-07,0.0,0.0,0.0,1.2184696791468346e-07,-0.020752932876348495,0.13313311338424802,9.775465965270996,8.999999999999999e-08,0.0,0.0,0.0,8.999999999999999e-08,0.0,0.0,0.0,8.999999999999999e-08
1758792835847070808,35980,1758792835832705920,base_link,-0.008317631492059033,-0.0015782015841082717,0.018042728672725706,-0.9998013869355457,1.0,0.0,0.0,0.0,1.0,0.0,0.0,0.0,1.0,0.0011709234677255154,0.00015792902559041999,0.0018316758796572685,1.2184696791468346e-07,0.0,0.0,0.0,1.2184696791468346e-07,0.0,0.0,0.0,1.2184696791468346e-07,-0.0026421728543937206,0.20545575022697568,9.81993579864502,8.999999999999999e-08,0.0,0.0,0.0,8.999999999999999e-08,0.0,0.0,0.0,8.999999999999999e-08
1758792835848561624,35981,1758792835837705920,base_link,-0.0083301682038575,-0.0015789154463549252,0.018027176485625178,-0.9998015976697882,1.0,0.0,0.0,0.0,1.0,0.0,0.0,0.0,1.0,0.0023878170177340508,-0.00033270847052335696,0.003459253814071417,1.2184696791468346e-07,0.0,0.0,0.0,1.2184696791468346e-07,0.0,0.0,0.0,1.2184696791468346e-07,-0.06241694837808609,0.1834656298160565,9.828330039978027,8.999999999999999e-08,0.0,0.0,0.0,8.999999999999999e-08,0.0,0.0,0.0,8.999999999999999e-08
1758792835849185528,35982,1758792835845705920,base_link,-0.008324537319041994,-0.0015811541684098123,0.01801908429071111,-0.9998017662571822,1.0,0.0,0.0,0.0,1.0,0.0,0.0,0.0,1.0,0.0013042399659752846,-0.00123138353228569,0.0011021242244169118,1.2184696791468346e-07,0.0,0.0,0.0,1.2184696791468346e-07,0.0,0.0,0.0,1.2184696791468346e-07,-0.1014159545302391,0.09968939423561216,9.799522399902344,8.999999999999999e-08,0.0,0.0,0.0,8.999999999999999e-08,0.0,0.0,0.0,8.999999999999999e-08
1758792835861721720,35983,1758792835851705920,base_link,-0.008321590003096516,-0.0015758597998378851,0.018040789917694252,-0.9998013869355457,1.0,0.0,0.0,0.0,1.0,0.0,0.0,0.0,1.0,-0.002579471794888377,-0.002889367751777172,0.0011161750881001358,1.2184696791468346e-07,0.0,0.0,0.0,1.2184696791468346e-07,0.0,0.0,0.0,1.2184696791468346e-07,-0.003226585453376174,0.2087610661983502,9.843122482299805,8.999999999999999e-08,0.0,0.0,0.0,8.999999999999999e-08,0.0,0.0,0.0,8.999999999999999e-08
1758792835870509560,35984,1758792835863705920,base_link,-0.008303805350113935,-0.0015593573330123466,0.018021613101621772,-0.9998019348445762,1.0,0.0,0.0,0.0,1.0,0.0,0.0,0.0,1.0,-0.0047609442844986916,-0.0027964436449110504,0.003980778157711029,1.2184696791468346e-07,0.0,0.0,0.0,1.2184696791468346e-07,0.0,0.0,0.0,1.2184696791468346e-07,-0.024814225733280182,0.23236918449401975,9.83648681640625,8.999999999999999e-08,0.0,0.0,0.0,8.999999999999999e-08,0.0,0.0,0.0,8.999999999999999e-08
1758792835877185720,35985,1758792835866705920,base_link,-0.008306790532368621,-0.0015621436348256215,0.018022582479137527,-0.9998018926977278,1.0,0.0,0.0,0.0,1.0,0.0,0.0,0.0,1.0,-0.0025497323367744684,-0.0005120774731040002,-0.00048524502199143166,1.2184696791468346e-07,0.0,0.0,0.0,1.2184696791468346e-07,0.0,0.0,0.0,1.2184696791468346e-07,-0.05985741317272186,0.09545599669218183,9.787261009216309,8.999999999999999e-08,0.0,0.0,0.0,8.999999999999999e-08,0.0,0.0,0.0,8.999999999999999e-08
1758792835885292120,35986,1758792835877705920,base_link,-0.008305974924995485,-0.0015701288162571659,0.018015628249133202,-0.9998020191382733,1.0,0.0,0.0,0.0,1.0,0.0,0.0,0.0,1.0,0.0005294634029269218,0.0019014813005924227,0.00170245801564306,1.2184696791468346e-07,0.0,0.0,0.0,1.2184696791468346e-07,0.0,0.0,0.0,1.2184696791468346e-07,-0.012404617853462696,0.20230379700660825,9.81921100616455,8.999999999999999e-08,0.0,0.0,0.0,8.999999999999999e-08,0.0,0.0,0.0,8.999999999999999e-08
1758792835888778808,35987,1758792835881705920,base_link,-0.008296792180376173,-0.001565898326337885,0.018001761935973117,-0.9998023141662129,1.0,0.0,0.0,0.0,1.0,0.0,0.0,0.0,1.0,0.0006234459578990936,-0.00020086020231246886,0.0049818698316812515,1.2184696791468346e-07,0.0,0.0,0.0,1.2184696791468346e-07,0.0,0.0,0.0,1.2184696791468346e-07,-0.049197968095541,0.15891319513321042,9.78532600402832,8.999999999999999e-08,0.0,0.0,0.0,8.999999999999999e-08,0.0,0.0,0.0,8.999999999999999e-08
1758792835903961528,35988,1758792835892705920,base_link,-0.008308715787237709,-0.0015651897324472951,0.018000918999002895,-0.9998022298725159,1.0,0.0,0.0,0.0,1.0,0.0,0.0,0.0,1.0,0.0001983798574656248,0.0009671053849160671,0.00018698145868256677,1.2184696791468346e-07,0.0,0.0,0.0,1.2184696791468346e-07,0.0,0.0,0.0,1.2184696791468346e-07,-0.024675702676177025,0.138564318418504,9.807497024536133,8.999999999999999e-08,0.0,0.0,0.0,8.999999999999999e-08,0.0,0.0,0.0,8.999999999999999e-08
1758792835906080472,35989,1758792835896705664,base_link,-0.008304143512718784,-0.001582653674254489,0.017996367139363756,-0.9998023141662129,1.0,0.0,0.0,0.0,1.0,0.0,0.0,0.0,1.0,-0.002180155599489808,-0.001086562406271696,-0.00048131460789591063,1.2184696791468346e-07,0.0,0.0,0.0,1.2184696791468346e-07,0.0,0.0,0.0,1.2184696791468346e-07,-0.01782071217894554,0.22303125262260556,9.794962882995605,8.999999999999999e-08,0.0,0.0,0.0,8.999999999999999e-08,0.0,0.0,0.0,8.999999999999999e-08
1758792835915316056,35990,1758792835911705664,base_link,-0.008315628528938003,-0.001563100829267974,0.017989876524693055,-0.9998023984599099,1.0,0.0,0.0,0.0,1.0,0.0,0.0,0.0,1.0,0.0022613718174397945,-0.001580849289894104,-0.00038547837175428846,1.2184696791468346e-07,0.0,0.0,0.0,1.2184696791468346e-07,0.0,0.0,0.0,1.2184696791468346e-07,-0.0711478516459465,0.12093120813369872,9.807376861572266,8.999999999999999e-08,0.0,0.0,0.0,8.999999999999999e-08,0.0,0.0,0.0,8.999999999999999e-08
1758792835930256312,35991,1758792835922705664,base_link,-0.008309784934246419,-0.0015591670136495394,0.01800273131348887,-0.9998021877256673,1.0,0.0,0.0,0.0,1.0,0.0,0.0,0.0,1.0,-0.0001667574979364872,-0.00019186548888683338,-0.0015976416179910302,1.2184696791468346e-07,0.0,0.0,0.0,1.2184696791468346e-07,0.0,0.0,0.0,1.2184696791468346e-07,-0.02583942376077175,0.11750899255275846,9.786794662475586,8.999999999999999e-08,0.0,0.0,0.0,8.999999999999999e-08,0.0,0.0,0.0,8.999999999999999e-08
1758792835944437048,35992,1758792835941705664,base_link,-0.008309069096366242,-0.0015700685594346852,0.018018452087983444,-0.9998018926977278,1.0,0.0,0.0,0.0,1.0,0.0,0.0,0.0,1.0,0.0023656650446355343,0.0019605439156293865,-0.0035428502596914773,1.2184696791468346e-07,0.0,0.0,0.0,1.2184696791468346e-07,0.0,0.0,0.0,1.2184696791468346e-07,-0.04924634471535683,0.12971016764640927,9.767377853393555,8.999999999999999e-08,0.0,0.0,0.0,8.999999999999999e-08,0.0,0.0,0.0,8.999999999999999e-08
1758792835957525752,35993,1758792835952705664,base_link,-0.00831207601058969,-0.0015715081377291353,0.018005175830702515,-0.9998021034319703,1.0,0.0,0.0,0.0,1.0,0.0,0.0,0.0,1.0,-3.6268262192606926e-05,0.001086757052689791,0.002093550283461809,1.2184696791468346e-07,0.0,0.0,0.0,1.2184696791468346e-07,0.0,0.0,0.0,1.2184696791468346e-07,-0.05913382023572922,0.13392868638038755,9.808883666992188,8.999999999999999e-08,0.0,0.0,0.0,8.999999999999999e-08,0.0,0.0,0.0,8.999999999999999e-08
1758792835969424312,35994,1758792835956705664,base_link,-0.008304862972593755,-0.0015688239103145978,0.01802043298986346,-0.9998019348445762,1.0,0.0,0.0,0.0,1.0,0.0,0.0,0.0,1.0,-0.001801415579393506,0.00017432589083909931,-0.004596805665642023,1.2184696791468346e-07,0.0,0.0,0.0,1.2184696791468346e-07,0.0,0.0,0.0,1.2184696791468346e-07,-0.07981766760349274,0.14222875237465024,9.810211181640625,8.999999999999999e-08,0.0,0.0,0.0,8.999999999999999e-08,0.0,0.0,0.0,8.999999999999999e-08
1758792835983438520,35995,1758792835971705664,base_link,-0.008286736864283786,-0.0015675275654506338,0.0180179041789528,-0.9998021034319703,1.0,0.0,0.0,0.0,1.0,0.0,0.0,0.0,1.0,-1.916009932756424e-05,-0.00038254447281360637,-0.0010321178706362844,1.2184696791468346e-07,0.0,0.0,0.0,1.2184696791468346e-07,0.0,0.0,0.0,1.2184696791468346e-07,-0.07722680270671844,0.17304152250290036,9.781742095947266,8.999999999999999e-08,0.0,0.0,0.0,8.999999999999999e-08,0.0,0.0,0.0,8.999999999999999e-08
1758792835990494584,35996,1758792835982705664,base_link,-0.00826761865867254,-0.001576598357503588,0.018041759295209948,-0.9998018505508792,1.0,0.0,0.0,0.0,1.0,0.0,0.0,0.0,1.0,-0.004482726566493511,0.001341310096904635,-0.00406503165140748,1.2184696791468346e-07,0.0,0.0,0.0,1.2184696791468346e-07,0.0,0.0,0.0,1.2184696791468346e-07,-0.0079471655189991,0.18820521235466123,9.823751449584961,8.999999999999999e-08,0.0,0.0,0.0,8.999999999999999e-08,0.0,0.0,0.0,8.999999999999999e-08
1758792836000292248,35997,1758792835995705664,base_link,-0.008272374337836936,-0.0015826763940400145,0.01802890450641413,-0.9998019769914248,1.0,0.0,0.0,0.0,1.0,0.0,0.0,0.0,1.0,-0.0004353418480604887,-0.002333715558052063,0.0012196300085633995,1.2184696791468346e-07,0.0,0.0,0.0,1.2184696791468346e-07,0.0,0.0,0.0,1.2184696791468346e-07,-0.04288817569613457,0.19436311721801877,9.809528350830078,8.999999999999999e-08,0.0,0.0,0.0,8.999999999999999e-08,0.0,0.0,0.0,8.999999999999999e-08
1758792836007416920,35998,1758792836001706432,base_link,-0.008260240984549609,-0.0015644725774781021,0.018040663477148715,-0.9998019348445762,1.0,0.0,0.0,0.0,1.0,0.0,0.0,0.0,1.0,-0.001068576006218791,-0.003287733998149634,-0.004264718387275934,1.2184696791468346e-07,0.0,0.0,0.0,1.2184696791468346e-07,0.0,0.0,0.0,1.2184696791468346e-07,-0.019571475684642792,0.1340768039226544,9.801602363586426,8.999999999999999e-08,0.0,0.0,0.0,8.999999999999999e-08,0.0,0.0,0.0,8.999999999999999e-08
1758792836014426808,35999,1758792836006706432,base_link,-0.008263399693282148,-0.0015594962859035307,0.018039061896905295,-0.9998019348445762,1.0,0.0,0.0,0.0,1.0,0.0,0.0,0.0,1.0,-0.0015539538580924273,-0.0030505401082336907,-0.002580761909484863,1.2184696791468346e-07,0.0,0.0,0.0,1.2184696791468346e-07,0.0,0.0,0.0,1.2184696791468346e-07,0.0062655070796608925,0.19372373819351316,9.816121101379395,8.999999999999999e-08,0.0,0.0,0.0,8.999999999999999e-08,0.0,0.0,0.0,8.999999999999999e-08
1758792836019217752,36000,1758792836015706432,base_link,-0.008255717771596529,-0.0015570675737580904,0.01804112709248234,-0.9998019769914248,1.0,0.0,0.0,0.0,1.0,0.0,0.0,0.0,1.0,-0.0006877074483782053,-0.00044862786307930887,0.004760760813951492,1.2184696791468346e-07,0.0,0.0,0.0,1.2184696791468346e-07,0.0,0.0,0.0,1.2184696791468346e-07,-0.031394366174936295,0.22926461696624875,9.788504600524902,8.999999999999999e-08,0.0,0.0,0.0,8.999999999999999e-08,0.0,0.0,0.0,8.999999999999999e-08
1758792836030311672,36001,1758792836016706432,base_link,-0.008238556760263008,-0.0015462503216699664,0.018023678297198812,-0.999802482753607,1.0,0.0,0.0,0.0,1.0,0.0,0.0,0.0,1.0,-0.002800513757392764,-0.001589738298207522,-0.005402514711022377,1.2184696791468346e-07,0.0,0.0,0.0,1.2184696791468346e-07,0.0,0.0,0.0,1.2184696791468346e-07,-0.07982443273067474,0.1356494128704083,9.807308197021484,8.999999999999999e-08,0.0,0.0,0.0,8.999999999999999e-08,0.0,0.0,0.0,8.999999999999999e-08
1758792836034331384,36002,1758792836027706432,base_link,-0.00823271448266044,-0.0015405252649898188,0.018056594985885785,-0.9998019348445762,1.0,0.0,0.0,0.0,1.0,0.0,0.0,0.0,1.0,-0.0012031418737024069,-0.0007261312566697601,-0.002338215708732605,1.2184696791468346e-07,0.0,0.0,0.0,1.2184696791468346e-07,0.0,0.0,0.0,1.2184696791468346e-07,-0.015311715193092823,0.18592122197151303,9.81645679473877,8.999999999999999e-08,0.0,0.0,0.0,8.999999999999999e-08,0.0,0.0,0.0,8.999999999999999e-08
1758792836042294552,36003,1758792836036706432,base_link,-0.00824037203819926,-0.0015543309920551683,0.01804972504957854,-0.9998019769914247,1.0,0.0,0.0,0.0,1.0,0.0,0.0,0.0,1.0,0.0015174632426351309,0.001164788380265236,-0.0004471002612262966,1.2184696791468346e-07,0.0,0.0,0.0,1.2184696791468346e-07,0.0,0.0,0.0,1.2184696791468346e-07,-0.057347528636455536,0.1558920145034802,9.812094688415527,8.999999999999999e-08,0.0,0.0,0.0,8.999999999999999e-08,0.0,0.0,0.0,8.999999999999999e-08
1758792836051161304,36004,1758792836045706432,base_link,-0.008245156364049757,-0.0015565285550783064,0.018062074076192224,-0.9998016819634852,1.0,0.0,0.0,0.0,1.0,0.0,0.0,0.0,1.0,-0.00033641583286225796,0.0007159945089370009,-0.0030117277055978775,1.2184696791468346e-07,0.0,0.0,0.0,1.2184696791468346e-07,0.0,0.0,0.0,1.2184696791468346e-07,-0.06984810531139374,0.10133140534162641,9.795570373535156,8.999999999999999e-08,0.0,0.0,0.0,8.999999999999999e-08,0.0,0.0,0.0,8.999999999999999e-08
1758792836053169912,36005,1758792836046706432,base_link,-0.008233822813067374,-0.0015572187097226725,0.01805710074806792,-0.9998018505508792,1.0,0.0,0.0,0.0,1.0,0.0,0.0,0.0,1.0,-0.0014669469092041254,0.0009477434214204549,-0.0005930286133661867,1.2184696791468346e-07,0.0,0.0,0.0,1.2184696791468346e-07,0.0,0.0,0.0,1.2184696791468346e-07,-0.005078497342765331,0.16270026564598203,9.815277099609375,8.999999999999999e-08,0.0,0.0,0.0,8.999999999999999e-08,0.0,0.0,0.0,8.999999999999999e-08
1758792836071432344,36006,1758792836066706432,base_link,-0.00823813463323339,-0.0015620817316418709,0.018046142567455098,-0.9998020191382733,1.0,0.0,0.0,0.0,1.0,0.0,0.0,0.0,1.0,0.003085003700107336,0.00252937083132565,-0.0010226428275927903,1.2184696791468346e-07,0.0,0.0,0.0,1.2184696791468346e-07,0.0,0.0,0.0,1.2184696791468346e-07,-0.06052979454398155,0.10559942573309064,9.790700912475586,8.999999999999999e-08,0.0,0.0,0.0,8.999999999999999e-08,0.0,0.0,0.0,8.999999999999999e-08
1758792836083483992,36007,1758792836076706432,base_link,-0.00824172567643542,-0.0015632282576302687,0.018041084945633827,-0.9998021034319703,1.0,0.0,0.0,0.0,1.0,0.0,0.0,0.0,1.0,-0.0008745144587010145,-0.0005241176113486288,0.001559993950650096,1.2184696791468346e-07,0.0,0.0,0.0,1.2184696791468346e-07,0.0,0.0,0.0,1.2184696791468346e-07,-0.05200454965233803,0.22751873731613279,9.808073997497559,8.999999999999999e-08,0.0,0.0,0.0,8.999999999999999e-08,0.0,0.0,0.0,8.999999999999999e-08
1758792836091136344,36008,1758792836081706432,base_link,-0.008242395086927784,-0.0015579220352571978,0.018026291401806498,-0.9998023984599099,1.0,0.0,0.0,0.0,1.0,0.0,0.0,0.0,1.0,-0.0005071137566119432,-0.0008075260557234289,-0.0018193126888945699,1.2184696791468346e-07,0.0,0.0,0.0,1.2184696791468346e-07,0.0,0.0,0.0,1.2184696791468346e-07,-0.052576225250959396,0.12994831800460935,9.76823616027832,8.999999999999999e-08,0.0,0.0,0.0,8.999999999999999e-08,0.0,0.0,0.0,8.999999999999999e-08
1758792836108514232,36009,1758792836104704640,base_link,-0.008245855079772726,-0.0015521545024562852,0.018051031601882383,-0.9998019348445762,1.0,0.0,0.0,0.0,1.0,0.0,0.0,0.0,1.0,0.0002533358056098223,0.0013313463423401122,0.0030382899567484856,1.2184696791468346e-07,0.0,0.0,0.0,1.2184696791468346e-07,0.0,0.0,0.0,1.2184696791468346e-07,-0.0043866015039384365,0.24168020486831784,9.823114395141602,8.999999999999999e-08,0.0,0.0,0.0,8.999999999999999e-08,0.0,0.0,0.0,8.999999999999999e-08
1758792836114491544,36010,1758792836106704640,base_link,-0.008242261731664919,-0.0015706994450733326,0.018038303253632097,-0.9998021034319703,1.0,0.0,0.0,0.0,1.0,0.0,0.0,0.0,1.0,0.0024136940483003855,0.001962908543646336,0.0027453780639916654,1.2184696791468346e-07,0.0,0.0,0.0,1.2184696791468346e-07,0.0,0.0,0.0,1.2184696791468346e-07,-0.0608731172978878,0.09929173439741255,9.824715614318848,8.999999999999999e-08,0.0,0.0,0.0,8.999999999999999e-08,0.0,0.0,0.0,8.999999999999999e-08
1758792836133318904,36011,1758792836125704640,base_link,-0.008231585078829248,-0.0015821004968677834,0.018028314450534974,-0.9998023984599099,1.0,0.0,0.0,0.0,1.0,0.0,0.0,0.0,1.0,-0.003983206115663052,0.001571078319102526,0.0020784600637853146,1.2184696791468346e-07,0.0,0.0,0.0,1.2184696791468346e-07,0.0,0.0,0.0,1.2184696791468346e-07,-0.056873198598623276,0.12060253322124602,9.822572708129883,8.999999999999999e-08,0.0,0.0,0.0,8.999999999999999e-08,0.0,0.0,0.0,8.999999999999999e-08
1758792836140319320,36012,1758792836134704640,base_link,-0.008239886032352371,-0.0015787761641914868,0.018029241681202218,-0.9998023141662129,1.0,0.0,0.0,0.0,1.0,0.0,0.0,0.0,1.0,0.00027840095572173595,0.001266390550881624,-0.000902791158296168,1.2184696791468346e-07,0.0,0.0,0.0,1.2184696791468346e-07,0.0,0.0,0.0,1.2184696791468346e-07,-0.01330249011516571,0.13263577222824216,9.815747261047363,8.999999999999999e-08,0.0,0.0,0.0,8.999999999999999e-08,0.0,0.0,0.0,8.999999999999999e-08
1758792836148111416,36013,1758792836140704640,base_link,-0.008248541612093041,-0.0015856293076138088,0.018032992750719703,-0.9998021877256673,1.0,0.0,0.0,0.0,1.0,0.0,0.0,0.0,1.0,0.0015475882682949305,0.0005554980598390102,-0.00032244424801319843,1.2184696791468346e-07,0.0,0.0,0.0,1.2184696791468346e-07,0.0,0.0,0.0,1.2184696791468346e-07,-0.04889392480254173,0.1922844648361218,9.813419342041016,8.999999999999999e-08,0.0,0.0,0.0,8.999999999999999e-08,0.0,0.0,0.0,8.999999999999999e-08
1758792836158471544,36014,1758792836151704640,base_link,-0.008220785936715094,-0.0015866210756428308,0.018026544282897565,-0.999802482753607,1.0,0.0,0.0,0.0,1.0,0.0,0.0,0.0,1.0,-0.0024749592412263155,0.0002153837122023104,-0.0014126551104709506,1.2184696791468346e-07,0.0,0.0,0.0,1.2184696791468346e-07,0.0,0.0,0.0,1.2184696791468346e-07,-0.056981176137924194,0.09232819825410962,9.793630599975586,8.999999999999999e-08,0.0,0.0,0.0,8.999999999999999e-08,0.0,0.0,0.0,8.999999999999999e-08
1758792836164567032,36015,1758792836155704640,base_link,-0.008225617348497909,-0.0015916540020450888,0.018041717148361492,-0.9998021455788189,1.0,0.0,0.0,0.0,1.0,0.0,0.0,0.0,1.0,-0.0021490093786269426,-0.0008035865612328056,-0.002528552897274494,1.2184696791468346e-07,0.0,0.0,0.0,1.2184696791468346e-07,0.0,0.0,0.0,1.2184696791468346e-07,-0.015992650762200356,0.14161017537117124,9.811391830444336,8.999999999999999e-08,0.0,0.0,0.0,8.999999999999999e-08,0.0,0.0,0.0,8.999999999999999e-08
1758792836174404824,36016,1758792836170704640,base_link,-0.008222539970012106,-0.0015834992454027386,0.018033582806598857,-0.9998023563130614,1.0,0.0,0.0,0.0,1.0,0.0,0.0,0.0,1.0,0.00046127266250550747,-0.0017977068200707433,0.002071153605356813,1.2184696791468346e-07,0.0,0.0,0.0,1.2184696791468346e-07,0.0,0.0,0.0,1.2184696791468346e-07,-0.05934681370854378,0.12028343230486037,9.81386661529541,8.999999999999999e-08,0.0,0.0,0.0,8.999999999999999e-08,0.0,0.0,0.0,8.999999999999999e-08
1758792836184182744,36017,1758792836179704640,base_link,-0.008220932792140374,-0.001590550610721964,0.018036322351752076,-0.9998023141662128,1.0,0.0,0.0,0.0,1.0,0.0,0.0,0.0,1.0,-0.0014507502783089876,-9.52365808188916e-05,-0.0006423918530344963,1.2184696791468346e-07,0.0,0.0,0.0,1.2184696791468346e-07,0.0,0.0,0.0,1.2184696791468346e-07,-0.03704804927110672,0.12310422211885573,9.829144477844238,8.999999999999999e-08,0.0,0.0,0.0,8.999999999999999e-08,0.0,0.0,0.0,8.999999999999999e-08
1758792836190253496,36018,1758792836185704640,base_link,-0.008207359860558596,-0.0015848439932880396,0.018034004275083965,-0.9998024406067584,1.0,0.0,0.0,0.0,1.0,0.0,0.0,0.0,1.0,-0.003558296477422118,-0.0011147554032504559,-1.2463540770113331e-05,1.2184696791468346e-07,0.0,0.0,0.0,1.2184696791468346e-07,0.0,0.0,0.0,1.2184696791468346e-07,-0.029712531715631485,0.2120465338230145,9.835466384887695,8.999999999999999e-08,0.0,0.0,0.0,8.999999999999999e-08,0.0,0.0,0.0,8.999999999999999e-08
1758792836204160664,36019,1758792836196704640,base_link,-0.00820321959123691,-0.0015932114598064678,0.01802608066756394,-0.9998026091941524,1.0,0.0,0.0,0.0,1.0,0.0,0.0,0.0,1.0,0.0016216030344367027,-0.001482605002820492,-0.001491222879849374,1.2184696791468346e-07,0.0,0.0,0.0,1.2184696791468346e-07,0.0,0.0,0.0,1.2184696791468346e-07,-0.0696384385228157,0.14144986867904782,9.78893756866455,8.999999999999999e-08,0.0,0.0,0.0,8.999999999999999e-08,0.0,0.0,0.0,8.999999999999999e-08
1758792836215295896,36020,1758792836209705152,base_link,-0.008216844547834818,-0.0015950892994709806,0.01803366710029588,-0.9998023563130614,1.0,0.0,0.0,0.0,1.0,0.0,0.0,0.0,1.0,0.0005953963845968246,-0.001268103718757629,0.004012256860733032,1.2184696791468346e-07,0.0,0.0,0.0,1.2184696791468346e-07,0.0,0.0,0.0,1.2184696791468346e-07,-0.006295733153820038,0.16461578011512876,9.776494026184082,8.999999999999999e-08,0.0,0.0,0.0,8.999999999999999e-08,0.0,0.0,0.0,8.999999999999999e-08
1758792836218368984,36021,1758792836211705152,base_link,-0.008211025977834536,-0.0015837600290279,0.01800424860003527,-0.9998029463689405,1.0,0.0,0.0,0.0,1.0,0.0,0.0,0.0,1.0,0.000175967114046216,-0.00014641275629401136,0.005818657577037811,1.2184696791468346e-07,0.0,0.0,0.0,1.2184696791468346e-07,0.0,0.0,0.0,1.2184696791468346e-07,-0.06078873202204704,0.13957709074020505,9.774657249450684,8.999999999999999e-08,0.0,0.0,0.0,8.999999999999999e-08,0.0,0.0,0.0,8.999999999999999e-08
1758792836226385528,36022,1758792836215705152,base_link,-0.008213159991312655,-0.001589091276092274,0.018009011193917016,-0.999802819928395,1.0,0.0,0.0,0.0,1.0,0.0,0.0,0.0,1.0,-0.0003059443552047014,0.0002306159585714338,-0.001807253691367805,1.2184696791468346e-07,0.0,0.0,0.0,1.2184696791468346e-07,0.0,0.0,0.0,1.2184696791468346e-07,-0.07993631064891815,0.11587818711996198,9.766866683959961,8.999999999999999e-08,0.0,0.0,0.0,8.999999999999999e-08,0.0,0.0,0.0,8.999999999999999e-08
1758792836234876984,36023,1758792836230705152,base_link,-0.008216005891403902,-0.0015745529182617935,0.018021444514227724,-0.9998026934878494,1.0,0.0,0.0,0.0,1.0,0.0,0.0,0.0,1.0,-0.0010864839423447847,-0.0020177895203232765,-0.0016627496806904671,1.2184696791468346e-07,0.0,0.0,0.0,1.2184696791468346e-07,0.0,0.0,0.0,1.2184696791468346e-07,-0.03730147331953049,0.23884588479995847,9.824874877929688,8.999999999999999e-08,0.0,0.0,0.0,8.999999999999999e-08,0.0,0.0,0.0,8.999999999999999e-08
1758792836250025496,36024,1758792836241705152,base_link,-0.008195951894046812,-0.001565424832836645,0.018029536709141793,-0.9998026934878494,1.0,0.0,0.0,0.0,1.0,0.0,0.0,0.0,1.0,-0.0017501360271126032,-0.0007201563566923145,-0.0028077377937734127,1.2184696791468346e-07,0.0,0.0,0.0,1.2184696791468346e-07,0.0,0.0,0.0,1.2184696791468346e-07,-0.0835920199751854,0.12254030257463576,9.808258056640625,8.999999999999999e-08,0.0,0.0,0.0,8.999999999999999e-08,0.0,0.0,0.0,8.999999999999999e-08
1758792836254307384,36025,1758792836245705152,base_link,-0.008188522524180003,-0.0015656161400162143,0.018034425743569078,-0.9998026934878494,1.0,0.0,0.0,0.0,1.0,0.0,0.0,0.0,1.0,-0.0004225440789014101,-0.0024084709584712982,-0.0008090097690001127,1.2184696791468346e-07,0.0,0.0,0.0,1.2184696791468346e-07,0.0,0.0,0.0,1.2184696791468346e-07,-0.03426595777273178,0.2050437331199658,9.796792984008789,8.999999999999999e-08,0.0,0.0,0.0,8.999999999999999e-08,0.0,0.0,0.0,8.999999999999999e-08
1758792836265685400,36026,1758792836260705152,base_link,-0.008202694401991792,-0.0015803787322516626,0.018015543955436177,-0.9998028620752435,1.0,0.0,0.0,0.0,1.0,0.0,0.0,0.0,1.0,0.0010875456500798464,0.0023141843266785145,0.001489560701884329,1.2184696791468346e-07,0.0,0.0,0.0,1.2184696791468346e-07,0.0,0.0,0.0,1.2184696791468346e-07,-0.04900570958852768,0.11047896742820859,9.771007537841797,8.999999999999999e-08,0.0,0.0,0.0,8.999999999999999e-08,0.0,0.0,0.0,8.999999999999999e-08
1758792836277276856,36027,1758792836265705152,base_link,-0.008211581130854765,-0.0015760102772579595,0.01801967434659026,-0.9998026934878494,1.0,0.0,0.0,0.0,1.0,0.0,0.0,0.0,1.0,-0.002255372004583478,-0.0005205157212913035,0.0006201386568136514,1.2184696791468346e-07,0.0,0.0,0.0,1.2184696791468346e-07,0.0,0.0,0.0,1.2184696791468346e-07,-0.011754184029996395,0.19184190034866452,9.813556671142578,8.999999999999999e-08,0.0,0.0,0.0,8.999999999999999e-08,0.0,0.0,0.0,8.999999999999999e-08
1758792836289511224,36028,1758792836283705152,base_link,-0.008194454693107913,-0.0015774725753379352,0.018004122159489735,-0.999803072809486,1.0,0.0,0.0,0.0,1.0,0.0,0.0,0.0,1.0,-0.0011307413224130869,-0.0027737659402191635,0.0021258820779621605,1.2184696791468346e-07,0.0,0.0,0.0,1.2184696791468346e-07,0.0,0.0,0.0,1.2184696791468346e-07,-0.06395486742258072,0.10754860192537428,9.830498695373535,8.999999999999999e-08,0.0,0.0,0.0,8.999999999999999e-08,0.0,0.0,0.0,8.999999999999999e-08
1758792836297088888,36029,1758792836289705152,base_link,-0.008180253839337773,-0.0015658367524263885,0.018037881785146984,-0.9998026091941524,1.0,0.0,0.0,0.0,1.0,0.0,0.0,0.0,1.0,-0.0010758151765912771,-0.0004751235246658333,-0.006311314646154642,1.2184696791468346e-07,0.0,0.0,0.0,1.2184696791468346e-07,0.0,0.0,0.0,1.2184696791468346e-07,-0.0027164332568645477,0.16890254616737485,9.831353187561035,8.999999999999999e-08,0.0,0.0,0.0,8.999999999999999e-08,0.0,0.0,0.0,8.999999999999999e-08
1758792836303304824,36030,1758792836298705152,base_link,-0.00817863250275912,-0.0015618670461322686,0.018038640428420183,-0.9998026091941524,1.0,0.0,0.0,0.0,1.0,0.0,0.0,0.0,1.0,-0.001218847231939435,-0.000722625758498907,0.0010909339180216193,1.2184696791468346e-07,0.0,0.0,0.0,1.2184696791468346e-07,0.0,0.0,0.0,1.2184696791468346e-07,-0.05682116374373436,0.19548773765564084,9.840758323669434,8.999999999999999e-08,0.0,0.0,0.0,8.999999999999999e-08,0.0,0.0,0.0,8.999999999999999e-08
1758792836315163544,36031,1758792836311704128,base_link,-0.008188893284738,-0.0015497906569448814,0.018056047076855142,-0.9998023141662129,1.0,0.0,0.0,0.0,1.0,0.0,0.0,0.0,1.0,3.7746503949165344e-06,-0.0002090935595333581,-0.004049855750054121,1.2184696791468346e-07,0.0,0.0,0.0,1.2184696791468346e-07,0.0,0.0,0.0,1.2184696791468346e-07,-0.023930484429001808,0.1475955843925488,9.789098739624023,8.999999999999999e-08,0.0,0.0,0.0,8.999999999999999e-08,0.0,0.0,0.0,8.999999999999999e-08
1758792836326104856,36032,1758792836320704128,base_link,-0.008200267006935368,-0.0015666230545689195,0.018037797491449962,-0.9998025249004554,1.0,0.0,0.0,0.0,1.0,0.0,0.0,0.0,1.0,-0.0021940625738352537,-0.0008608908392488953,0.0028392719104886055,1.2184696791468346e-07,0.0,0.0,0.0,1.2184696791468346e-07,0.0,0.0,0.0,1.2184696791468346e-07,0.014236483722925186,0.18853461742401242,9.802413940429688,8.999999999999999e-08,0.0,0.0,0.0,8.999999999999999e-08,0.0,0.0,0.0,8.999999999999999e-08
1758792836336754072,36033,1758792836326704128,base_link,-0.008186926541564908,-0.0015768709949298928,0.018044077371878055,-0.999802482753607,1.0,0.0,0.0,0.0,1.0,0.0,0.0,0.0,1.0,-0.002081999322399497,0.0017649885267019268,-0.004293088801205158,1.2184696791468346e-07,0.0,0.0,0.0,1.2184696791468346e-07,0.0,0.0,0.0,1.2184696791468346e-07,-0.05534536764025688,0.15577030181884885,9.808975219726562,8.999999999999999e-08,0.0,0.0,0.0,8.999999999999999e-08,0.0,0.0,0.0,8.999999999999999e-08
1758792836347704920,36034,1758792836341704128,base_link,-0.008192799770759353,-0.001582692199108206,0.018033919981386943,-0.9998026091941524,1.0,0.0,0.0,0.0,1.0,0.0,0.0,0.0,1.0,0.0035351829137653112,0.0005341426003724342,0.004320214968174696,1.2184696791468346e-07,0.0,0.0,0.0,1.2184696791468346e-07,0.0,0.0,0.0,1.2184696791468346e-07,-0.059201356023550034,0.142201751470567,9.785529136657715,8.999999999999999e-08,0.0,0.0,0.0,8.999999999999999e-08,0.0,0.0,0.0,8.999999999999999e-08
1758792836359254328,36035,1758792836351704128,base_link,-0.00819055643889291,-0.0015735611502327718,0.0180431079943623,-0.9998024406067584,1.0,0.0,0.0,0.0,1.0,0.0,0.0,0.0,1.0,4.444364458322525e-05,0.00045782211236655663,-0.0039578708820044994,1.2184696791468346e-07,0.0,0.0,0.0,1.2184696791468346e-07,0.0,0.0,0.0,1.2184696791468346e-07,-0.01828179880976677,0.17365053296089292,9.785598754882812,8.999999999999999e-08,0.0,0.0,0.0,8.999999999999999e-08,0.0,0.0,0.0,8.999999999999999e-08
1758792836366577976,36036,1758792836356704128,base_link,-0.008211208394663248,-0.0015806214059028547,0.018038218959935074,-0.9998023563130614,1.0,0.0,0.0,0.0,1.0,0.0,0.0,0.0,1.0,0.0028020686004310846,0.0007387080695480108,-6.822310388088236e-05,1.2184696791468346e-07,0.0,0.0,0.0,1.2184696791468346e-07,0.0,0.0,0.0,1.2184696791468346e-07,0.009100415743887424,0.2586496174335492,9.799837112426758,8.999999999999999e-08,0.0,0.0,0.0,8.999999999999999e-08,0.0,0.0,0.0,8.999999999999999e-08
1758792836372394200,36037,1758792836367704128,base_link,-0.008213170198752527,-0.0015994972671351632,0.018036575232843143,-0.9998023141662129,1.0,0.0,0.0,0.0,1.0,0.0,0.0,0.0,1.0,0.00127169000916183,0.0023155738599598408,0.0008270199177786705,1.2184696791468346e-07,0.0,0.0,0.0,1.2184696791468346e-07,0.0,0.0,0.0,1.2184696791468346e-07,-0.06297324597835541,0.13021722435951352,9.786858558654785,8.999999999999999e-08,0.0,0.0,0.0,8.999999999999999e-08,0.0,0.0,0.0,8.999999999999999e-08
1758792836378497432,36038,1758792836371704128,base_link,-0.00822362920262831,-0.001589322095942322,0.018040157714966584,-0.9998021877256673,1.0,0.0,0.0,0.0,1.0,0.0,0.0,0.0,1.0,0.0019334993558004498,-0.0005560815334320069,-0.0010188781889155507,1.2184696791468346e-07,0.0,0.0,0.0,1.2184696791468346e-07,0.0,0.0,0.0,1.2184696791468346e-07,-0.05898738279938698,0.11054029315710187,9.785573959350586,8.999999999999999e-08,0.0,0.0,0.0,8.999999999999999e-08,0.0,0.0,0.0,8.999999999999999e-08
1758792836386021848,36039,1758792836376704128,base_link,-0.008220128380023874,-0.0015818074445617314,0.018033540659750345,-0.9998023984599098,1.0,0.0,0.0,0.0,1.0,0.0,0.0,0.0,1.0,-0.003797276644036174,-0.0032192873768508434,-0.0011405419791117306,1.2184696791468346e-07,0.0,0.0,0.0,1.2184696791468346e-07,0.0,0.0,0.0,1.2184696791468346e-07,0.0031114998273551464,0.17603453993797422,9.80201530456543,8.999999999999999e-08,0.0,0.0,0.0,8.999999999999999e-08,0.0,0.0,0.0,8.999999999999999e-08
1758792836396328248,36040,1758792836386704128,base_link,-0.00820060451099571,-0.0015798489331949907,0.018035985176963986,-0.9998024827536068,1.0,0.0,0.0,0.0,1.0,0.0,0.0,0.0,1.0,0.0010711445938795805,-0.000537011306732893,-0.00013750337529927487,1.2184696791468346e-07,0.0,0.0,0.0,1.2184696791468346e-07,0.0,0.0,0.0,1.2184696791468346e-07,-0.071406789124012,0.16420447826385617,9.790546417236328,8.999999999999999e-08,0.0,0.0,0.0,8.999999999999999e-08,0.0,0.0,0.0,8.999999999999999e-08
1758792836407348376,36041,1758792836399704128,base_link,-0.008213164271851956,-0.001576323744443759,0.01804504674939381,-0.9998021877256673,1.0,0.0,0.0,0.0,1.0,0.0,0.0,0.0,1.0,0.0028462756890803576,0.0034621998202055693,-0.0016064214287325744,1.2184696791468346e-07,0.0,0.0,0.0,1.2184696791468346e-07,0.0,0.0,0.0,1.2184696791468346e-07,-0.0743262991309166,0.05645788460970045,9.782023429870605,8.999999999999999e-08,0.0,0.0,0.0,8.999999999999999e-08,0.0,0.0,0.0,8.999999999999999e-08
1758792836419909848,36042,1758792836409709504,base_link,-0.008197481692938855,-0.0015857001011484173,0.018031854785809903,-0.999802567047304,1.0,0.0,0.0,0.0,1.0,0.0,0.0,0.0,1.0,-0.0019422739278525114,0.0012694033794105055,0.0022557182237505913,1.2184696791468346e-07,0.0,0.0,0.0,1.2184696791468346e-07,0.0,0.0,0.0,1.2184696791468346e-07,-0.015075147151947021,0.1739601194858563,9.826969146728516,8.999999999999999e-08,0.0,0.0,0.0,8.999999999999999e-08,0.0,0.0,0.0,8.999999999999999e-08
1758792836423209112,36043,1758792836413709504,base_link,-0.008203146163524268,-0.001582970763435083,0.0180322341074465,-0.9998025249004554,1.0,0.0,0.0,0.0,1.0,0.0,0.0,0.0,1.0,0.000919656828045845,0.00037968112155795087,-0.0007504464592784643,1.2184696791468346e-07,0.0,0.0,0.0,1.2184696791468346e-07,0.0,0.0,0.0,1.2184696791468346e-07,-0.05686571076512337,0.10081855207681775,9.745417594909668,8.999999999999999e-08,0.0,0.0,0.0,8.999999999999999e-08,0.0,0.0,0.0,8.999999999999999e-08
1758792836435256440,36044,1758792836428709504,base_link,-0.008214576849821579,-0.0015812582184420736,0.018030801114597126,-0.9998024406067584,1.0,0.0,0.0,0.0,1.0,0.0,0.0,0.0,1.0,-0.00015860912390053272,0.00021932646632194557,0.002993369707837701,1.2184696791468346e-07,0.0,0.0,0.0,1.2184696791468346e-07,0.0,0.0,0.0,1.2184696791468346e-07,-0.036363426595926285,0.18362373113632321,9.838552474975586,8.999999999999999e-08,0.0,0.0,0.0,8.999999999999999e-08,0.0,0.0,0.0,8.999999999999999e-08
1758792836446259736,36045,1758792836438709504,base_link,-0.008228025316491347,-0.0015877425769399256,0.01802721863247374,-0.9998023984599099,1.0,0.0,0.0,0.0,1.0,0.0,0.0,0.0,1.0,0.0027893399819731712,-0.00017174705862998968,-0.0003486605128273368,1.2184696791468346e-07,0.0,0.0,0.0,1.2184696791468346e-07,0.0,0.0,0.0,1.2184696791468346e-07,0.005070443265140057,0.17148885130882383,9.787631034851074,8.999999999999999e-08,0.0,0.0,0.0,8.999999999999999e-08,0.0,0.0,0.0,8.999999999999999e-08
1758792836456331096,36046,1758792836443709504,base_link,-0.008238257781056383,-0.0015880079703766423,0.018026586429746076,-0.9998023563130614,1.0,0.0,0.0,0.0,1.0,0.0,0.0,0.0,1.0,0.0017686279024928808,0.000885075191035867,0.0013961661607027054,1.2184696791468346e-07,0.0,0.0,0.0,1.2184696791468346e-07,0.0,0.0,0.0,1.2184696791468346e-07,0.003269404638558626,0.2267395555973065,9.780659675598145,8.999999999999999e-08,0.0,0.0,0.0,8.999999999999999e-08,0.0,0.0,0.0,8.999999999999999e-08
1758792836467030488,36047,1758792836458709504,base_link,-0.008245130351541691,-0.0016023760944518094,0.01801765129786173,-0.9998024406067584,1.0,0.0,0.0,0.0,1.0,0.0,0.0,0.0,1.0,0.0007807458750903606,0.002577709965407848,-0.0038248612545430665,1.2184696791468346e-07,0.0,0.0,0.0,1.2184696791468346e-07,0.0,0.0,0.0,1.2184696791468346e-07,-0.08646327257156372,0.09972656518221022,9.818504333496094,8.999999999999999e-08,0.0,0.0,0.0,8.999999999999999e-08,0.0,0.0,0.0,8.999999999999999e-08
1758792836473133304,36048,1758792836468709504,base_link,-0.008228024987219095,-0.0015984534740900104,0.01804226505739208,-0.9998021034319703,1.0,0.0,0.0,0.0,1.0,0.0,0.0,0.0,1.0,-0.0033155607525259256,0.00037419307045638523,-0.00295839412137866,1.2184696791468346e-07,0.0,0.0,0.0,1.2184696791468346e-07,0.0,0.0,0.0,1.2184696791468346e-07,-0.03288324177265167,0.19602376222610593,9.812115669250488,8.999999999999999e-08,0.0,0.0,0.0,8.999999999999999e-08,0.0,0.0,0.0,8.999999999999999e-08
1758792836482062200,36049,1758792836473709504,base_link,-0.008242616687154721,-0.0015958341133095093,0.01802936812174775,-0.9998022720193643,1.0,0.0,0.0,0.0,1.0,0.0,0.0,0.0,1.0,0.0019649104215204716,-0.002379916608333587,0.0023060231469571595,1.2184696791468346e-07,0.0,0.0,0.0,1.2184696791468346e-07,0.0,0.0,0.0,1.2184696791468346e-07,-0.08050817996263504,0.14614102244377256,9.801775932312012,8.999999999999999e-08,0.0,0.0,0.0,8.999999999999999e-08,0.0,0.0,0.0,8.999999999999999e-08
1758792836486582712,36050,1758792836482709504,base_link,-0.008233237366999777,-0.0016006668421813407,0.018033962128235458,-0.9998022298725158,1.0,0.0,0.0,0.0,1.0,0.0,0.0,0.0,1.0,-0.0023132043424993753,0.00014764978550374486,-0.0016766536282375455,1.2184696791468346e-07,0.0,0.0,0.0,1.2184696791468346e-07,0.0,0.0,0.0,1.2184696791468346e-07,-0.06429381668567657,0.1300176978111279,9.793600082397461,8.999999999999999e-08,0.0,0.0,0.0,8.999999999999999e-08,0.0,0.0,0.0,8.999999999999999e-08
1758792836498421944,36051,1758792836488709504,base_link,-0.008223262393337363,-0.0015929289442125434,0.018048713525214272,-0.9998020612851217,1.0,0.0,0.0,0.0,1.0,0.0,0.0,0.0,1.0,0.0010376167483627796,-0.0007962659001350404,-0.0006957487203180789,1.2184696791468346e-07,0.0,0.0,0.0,1.2184696791468346e-07,0.0,0.0,0.0,1.2184696791468346e-07,0.006989552639424801,0.2311141788959515,9.832430839538574,8.999999999999999e-08,0.0,0.0,0.0,8.999999999999999e-08,0.0,0.0,0.0,8.999999999999999e-08
1758792836510007480,36052,1758792836503709248,base_link,-0.008229522188157992,-0.0015742002676777686,0.01804787058824405,-0.9998020612851217,1.0,0.0,0.0,0.0,1.0,0.0,0.0,0.0,1.0,-0.0010218031238764524,-0.002189306076616049,-0.0015128900995478032,1.2184696791468346e-07,0.0,0.0,0.0,1.2184696791468346e-07,0.0,0.0,0.0,1.2184696791468346e-07,-0.05049616098403931,0.1353955566883099,9.80051326751709,8.999999999999999e-08,0.0,0.0,0.0,8.999999999999999e-08,0.0,0.0,0.0,8.999999999999999e-08
1758792836522722168,36053,1758792836513709248,base_link,-0.008207640400518997,-0.0015663553562264248,0.018051537364064514,-0.9998021877256673,1.0,0.0,0.0,0.0,1.0,0.0,0.0,0.0,1.0,-0.00413528922945261,-0.001289332751184702,-0.0004902712535113095,1.2184696791468346e-07,0.0,0.0,0.0,1.2184696791468346e-07,0.0,0.0,0.0,1.2184696791468346e-07,-0.01598658226430416,0.17658963799476743,9.810999870300293,8.999999999999999e-08,0.0,0.0,0.0,8.999999999999999e-08,0.0,0.0,0.0,8.999999999999999e-08
1758792836530118104,36054,1758792836518709248,base_link,-0.008196320020426775,-0.0015591390255079499,0.018036364498600587,-0.9998025249004554,1.0,0.0,0.0,0.0,1.0,0.0,0.0,0.0,1.0,-7.318682037293911e-05,-0.0007403087802231314,-0.0018077382119372487,1.2184696791468346e-07,0.0,0.0,0.0,1.2184696791468346e-07,0.0,0.0,0.0,1.2184696791468346e-07,-0.07909610867500305,0.12300634384155394,9.82769775390625,8.999999999999999e-08,0.0,0.0,0.0,8.999999999999999e-08,0.0,0.0,0.0,8.999999999999999e-08
1758792836538189400,36055,1758792836533709248,base_link,-0.00821081590213649,-0.0015719865703141848,0.018050441546003226,-0.9998021877256673,1.0,0.0,0.0,0.0,1.0,0.0,0.0,0.0,1.0,0.004582955501973629,0.0022748298943042755,0.0015235422179102895,1.2184696791468346e-07,0.0,0.0,0.0,1.2184696791468346e-07,0.0,0.0,0.0,1.2184696791468346e-07,-0.025201907381415367,0.19954949617385984,9.774819374084473,8.999999999999999e-08,0.0,0.0,0.0,8.999999999999999e-08,0.0,0.0,0.0,8.999999999999999e-08
1758792836547410008,36056,1758792836543709248,base_link,-0.008207096113483149,-0.0015675028700315845,0.018041970029452504,-0.9998023141662129,1.0,0.0,0.0,0.0,1.0,0.0,0.0,0.0,1.0,-0.0018873985391110182,-0.00022439518943428966,0.002125382889062166,1.2184696791468346e-07,0.0,0.0,0.0,1.2184696791468346e-07,0.0,0.0,0.0,1.2184696791468346e-07,-0.050962381064891815,0.07386247813701749,9.788256645202637,8.999999999999999e-08,0.0,0.0,0.0,8.999999999999999e-08,0.0,0.0,0.0,8.999999999999999e-08
1758792836563871960,36057,1758792836548709248,base_link,-0.008207100723294706,-0.0015724426123859632,0.018046479742243184,-0.9998022720193643,1.0,0.0,0.0,0.0,1.0,0.0,0.0,0.0,1.0,-0.0037527449894696474,6.578397005796426e-05,-0.0005713687278330326,1.2184696791468346e-07,0.0,0.0,0.0,1.2184696791468346e-07,0.0,0.0,0.0,1.2184696791468346e-07,-0.022340228781104088,0.14812120795250058,9.776420593261719,8.999999999999999e-08,0.0,0.0,0.0,8.999999999999999e-08,0.0,0.0,0.0,8.999999999999999e-08
1758792836578261176,36058,1758792836573709248,base_link,-0.008166256146548347,-0.0015671633903377195,0.01804171714836149,-0.999802651341001,1.0,0.0,0.0,0.0,1.0,0.0,0.0,0.0,1.0,-0.0012290028389543295,0.00017866818234324442,-0.0011985957389697433,1.2184696791468346e-07,0.0,0.0,0.0,1.2184696791468346e-07,0.0,0.0,0.0,1.2184696791468346e-07,-0.014509089291095734,0.22381746768951535,9.780155181884766,8.999999999999999e-08,0.0,0.0,0.0,8.999999999999999e-08,0.0,0.0,0.0,8.999999999999999e-08
1758792836585056184,36059,1758792836578709248,base_link,-0.008159748409720462,-0.0015642302330991648,0.018036996701328252,-0.999802819928395,1.0,0.0,0.0,0.0,1.0,0.0,0.0,0.0,1.0,-0.0028155457694083452,-0.00043045962229371065,0.00029648566851392394,1.2184696791468346e-07,0.0,0.0,0.0,1.2184696791468346e-07,0.0,0.0,0.0,1.2184696791468346e-07,-0.027752406895160675,0.20628267526626706,9.817983627319336,8.999999999999999e-08,0.0,0.0,0.0,8.999999999999999e-08,0.0,0.0,0.0,8.999999999999999e-08
1758792836601402584,36060,1758792836593709248,base_link,-0.008141234089423036,-0.0015537758390349386,0.018051958832549623,-0.9998027777815465,1.0,0.0,0.0,0.0,1.0,0.0,0.0,0.0,1.0,-0.0008437817450612783,8.577923290431445e-05,-0.004464555531740189,1.2184696791468346e-07,0.0,0.0,0.0,1.2184696791468346e-07,0.0,0.0,0.0,1.2184696791468346e-07,-0.04691069945693016,0.182172477245332,9.805283546447754,8.999999999999999e-08,0.0,0.0,0.0,8.999999999999999e-08,0.0,0.0,0.0,8.999999999999999e-08
1758792836609330456,36061,1758792836603709760,base_link,-0.008142685192246375,-0.0015317057076666598,0.018044836015151253,-0.9998029042220921,1.0,0.0,0.0,0.0,1.0,0.0,0.0,0.0,1.0,0.0007420817855745554,-0.0027485280297696586,0.002041840692982078,1.2184696791468346e-07,0.0,0.0,0.0,1.2184696791468346e-07,0.0,0.0,0.0,1.2184696791468346e-07,-0.05876292660832405,0.15138417482376218,9.780064582824707,8.999999999999999e-08,0.0,0.0,0.0,8.999999999999999e-08,0.0,0.0,0.0,8.999999999999999e-08
1758792836619405016,36062,1758792836608709760,base_link,-0.008146987134244773,-0.0015399417945557456,0.018042686525877188,-0.9998028620752435,1.0,0.0,0.0,0.0,1.0,0.0,0.0,0.0,1.0,0.0015584584325551987,-0.0008248062804341316,0.00026415433967486035,1.2184696791468346e-07,0.0,0.0,0.0,1.2184696791468346e-07,0.0,0.0,0.0,1.2184696791468346e-07,-0.05829998105764389,0.09810589253902555,9.786931991577148,8.999999999999999e-08,0.0,0.0,0.0,8.999999999999999e-08,0.0,0.0,0.0,8.999999999999999e-08
1758792836624798840,36063,1758792836618709760,base_link,-0.008156756642020696,-0.0015460300385320461,0.018059840293221135,-0.999802482753607,1.0,0.0,0.0,0.0,1.0,0.0,0.0,0.0,1.0,0.0011336812749505043,0.0016533129382878535,-0.0050414931029081345,1.2184696791468346e-07,0.0,0.0,0.0,1.2184696791468346e-07,0.0,0.0,0.0,1.2184696791468346e-07,-0.02443707548081875,0.2083449661731732,9.813651084899902,8.999999999999999e-08,0.0,0.0,0.0,8.999999999999999e-08,0.0,0.0,0.0,8.999999999999999e-08
1758792836639447640,36064,1758792836627709760,base_link,-0.008162067803477576,-0.0015471568081852046,0.01805229600733771,-0.9998026091941524,1.0,0.0,0.0,0.0,1.0,0.0,0.0,0.0,1.0,-0.0018064414616674185,-0.00211143447086215,-0.00010458787437528346,1.2184696791468346e-07,0.0,0.0,0.0,1.2184696791468346e-07,0.0,0.0,0.0,1.2184696791468346e-07,-0.05445685610175133,0.09682975709438445,9.812478065490723,8.999999999999999e-08,0.0,0.0,0.0,8.999999999999999e-08,0.0,0.0,0.0,8.999999999999999e-08
1758792836643771736,36065,1758792836636709760,base_link,-0.008155634811451347,-0.0015348825263731686,0.018055161993036462,-0.9998026091941524,1.0,0.0,0.0,0.0,1.0,0.0,0.0,0.0,1.0,-0.003354620886966586,-0.0030124248005449776,-0.004039050545543432,1.2184696791468346e-07,0.0,0.0,0.0,1.2184696791468346e-07,0.0,0.0,0.0,1.2184696791468346e-07,-0.06637690961360931,0.11619653552770734,9.763445854187012,8.999999999999999e-08,0.0,0.0,0.0,8.999999999999999e-08,0.0,0.0,0.0,8.999999999999999e-08
1758792836657855032,36066,1758792836653709760,base_link,-0.008142800437535272,-0.0015207870397243068,0.01805887091570538,-0.9998026091941524,1.0,0.0,0.0,0.0,1.0,0.0,0.0,0.0,1.0,-0.00020663649775087833,-0.00144211295992136,0.000214995408896357,1.2184696791468346e-07,0.0,0.0,0.0,1.2184696791468346e-07,0.0,0.0,0.0,1.2184696791468346e-07,-0.057222068309783936,0.12159894406795621,9.77689266204834,8.999999999999999e-08,0.0,0.0,0.0,8.999999999999999e-08,0.0,0.0,0.0,8.999999999999999e-08
1758792836668195992,36067,1758792836663709760,base_link,-0.008145495530934192,-0.0015083566828638787,0.018076193270443373,-0.9998023141662128,1.0,0.0,0.0,0.0,1.0,0.0,0.0,0.0,1.0,-4.391232505440712e-05,-0.002614115364849568,-0.002046461217105388,1.2184696791468346e-07,0.0,0.0,0.0,1.2184696791468346e-07,0.0,0.0,0.0,1.2184696791468346e-07,-0.047076012939214706,0.2141139507293713,9.82630443572998,8.999999999999999e-08,0.0,0.0,0.0,8.999999999999999e-08,0.0,0.0,0.0,8.999999999999999e-08
1758792836683240088,36068,1758792836676709760,base_link,-0.008120408607174844,-0.0014948970209374738,0.018070840620682465,-0.9998026934878494,1.0,0.0,0.0,0.0,1.0,0.0,0.0,0.0,1.0,-0.0001598559319972992,-0.0006856815889477734,-0.0033856267109513283,1.2184696791468346e-07,0.0,0.0,0.0,1.2184696791468346e-07,0.0,0.0,0.0,1.2184696791468346e-07,-0.03916385769844055,0.0628042072057736,9.790199279785156,8.999999999999999e-08,0.0,0.0,0.0,8.999999999999999e-08,0.0,0.0,0.0,8.999999999999999e-08
1758792836693861752,36069,1758792836681709760,base_link,-0.008128199517976534,-0.0014998522390877898,0.018074380955957394,-0.9998025249004554,1.0,0.0,0.0,0.0,1.0,0.0,0.0,0.0,1.0,0.001067525241523981,0.001210524933412671,0.0006942559266462921,1.2184696791468346e-07,0.0,0.0,0.0,1.2184696791468346e-07,0.0,0.0,0.0,1.2184696791468346e-07,-0.012222690507769585,0.19697919487953305,9.807538032531738,8.999999999999999e-08,0.0,0.0,0.0,8.999999999999999e-08,0.0,0.0,0.0,8.999999999999999e-08
1758792836698010552,36070,1758792836691709760,base_link,-0.008141199186564113,-0.0015105206601171099,0.01808154592020428,-0.9998022720193643,1.0,0.0,0.0,0.0,1.0,0.0,0.0,0.0,1.0,0.002147969789803028,-0.00047935917973518355,0.0012802579440176487,1.2184696791468346e-07,0.0,0.0,0.0,1.2184696791468346e-07,0.0,0.0,0.0,1.2184696791468346e-07,-0.062118519097566605,0.16461840271949887,9.78291130065918,8.999999999999999e-08,0.0,0.0,0.0,8.999999999999999e-08,0.0,0.0,0.0,8.999999999999999e-08
1758792836717337944,36071,1758792836709709504,base_link,-0.00813622454135081,-0.0014864646877850091,0.018059840293221135,-0.999802735634698,1.0,0.0,0.0,0.0,1.0,0.0,0.0,0.0,1.0,-7.176515646278858e-05,-0.0010732240043580526,0.004514328669756651,1.2184696791468346e-07,0.0,0.0,0.0,1.2184696791468346e-07,0.0,0.0,0.0,1.2184696791468346e-07,-0.04424859955906868,0.19619596004486203,9.804527282714844,8.999999999999999e-08,0.0,0.0,0.0,8.999999999999999e-08,0.0,0.0,0.0,8.999999999999999e-08
1758792836723243992,36072,1758792836718709504,base_link,-0.008136648314741698,-0.001494469625551793,0.01805916594364496,-0.999802735634698,1.0,0.0,0.0,0.0,1.0,0.0,0.0,0.0,1.0,7.15409405529499e-05,-0.0007987017743289472,-0.0004466321552172302,1.2184696791468346e-07,0.0,0.0,0.0,1.2184696791468346e-07,0.0,0.0,0.0,1.2184696791468346e-07,-0.07494913041591644,0.11527810990810514,9.799097061157227,8.999999999999999e-08,0.0,0.0,0.0,8.999999999999999e-08,0.0,0.0,0.0,8.999999999999999e-08
1758792836736152600,36073,1758792836724709504,base_link,-0.008155702970807924,-0.0015000669245973921,0.018084580493297017,-0.9998021034319703,1.0,0.0,0.0,0.0,1.0,0.0,0.0,0.0,1.0,0.002828828524798155,0.001451357500627637,-0.0003492021933197977,1.2184696791468346e-07,0.0,0.0,0.0,1.2184696791468346e-07,0.0,0.0,0.0,1.2184696791468346e-07,0.003114866092801094,0.2072642445564282,9.8024263381958,8.999999999999999e-08,0.0,0.0,0.0,8.999999999999999e-08,0.0,0.0,0.0,8.999999999999999e-08
1758792836748893688,36074,1758792836739709504,base_link,-0.008153416833548461,-0.0015054660017460883,0.018067721753892704,-0.9998024406067584,1.0,0.0,0.0,0.0,1.0,0.0,0.0,0.0,1.0,0.0013451471459120512,0.0009789105970412493,0.0007874435978010296,1.2184696791468346e-07,0.0,0.0,0.0,1.2184696791468346e-07,0.0,0.0,0.0,1.2184696791468346e-07,-0.045271698385477066,0.09251387417316556,9.755985260009766,8.999999999999999e-08,0.0,0.0,0.0,8.999999999999999e-08,0.0,0.0,0.0,8.999999999999999e-08
1758792836757634904,36075,1758792836750709504,base_link,-0.008163019071019358,-0.0015018901050677423,0.018084411905902976,-0.9998020191382733,1.0,0.0,0.0,0.0,1.0,0.0,0.0,0.0,1.0,6.885244511067867e-05,-0.0016688737086951733,-0.000548881012946367,1.2184696791468346e-07,0.0,0.0,0.0,1.2184696791468346e-07,0.0,0.0,0.0,1.2184696791468346e-07,-0.022452736273407936,0.21079161763191342,9.801249504089355,8.999999999999999e-08,0.0,0.0,0.0,8.999999999999999e-08,0.0,0.0,0.0,8.999999999999999e-08
1758792836767662168,36076,1758792836763709504,base_link,-0.008159120816804354,-0.0015016006747564838,0.018083863996872385,-0.9998020612851218,1.0,0.0,0.0,0.0,1.0,0.0,0.0,0.0,1.0,0.0012779762037098408,-0.0002562552690505982,-0.00027227541431784624,1.2184696791468346e-07,0.0,0.0,0.0,1.2184696791468346e-07,0.0,0.0,0.0,1.2184696791468346e-07,-0.04579221457242966,0.12369762361049771,9.79851245880127,8.999999999999999e-08,0.0,0.0,0.0,8.999999999999999e-08,0.0,0.0,0.0,8.999999999999999e-08
1758792836774375672,36077,1758792836769709504,base_link,-0.008165536028128868,-0.0015097122967335612,0.01808580275190384,-0.9998019769914248,1.0,0.0,0.0,0.0,1.0,0.0,0.0,0.0,1.0,0.0006841425783932209,0.0023022468667477365,-0.0018754204502329232,1.2184696791468346e-07,0.0,0.0,0.0,1.2184696791468346e-07,0.0,0.0,0.0,1.2184696791468346e-07,-0.01852310262620449,0.15944179892540097,9.774935722351074,8.999999999999999e-08,0.0,0.0,0.0,8.999999999999999e-08,0.0,0.0,0.0,8.999999999999999e-08
1758792836783166232,36078,1758792836778709504,base_link,-0.008166742810939747,-0.0014956691643730838,0.018077584116444237,-0.9998021877256673,1.0,0.0,0.0,0.0,1.0,0.0,0.0,0.0,1.0,8.83124303072691e-05,-0.0017584934830665586,0.0022822662722319365,1.2184696791468346e-07,0.0,0.0,0.0,1.2184696791468346e-07,0.0,0.0,0.0,1.2184696791468346e-07,-0.039794307202100754,0.2126844674348843,9.816108703613281,8.999999999999999e-08,0.0,0.0,0.0,8.999999999999999e-08,0.0,0.0,0.0,8.999999999999999e-08
1758792836791447288,36079,1758792836784709504,base_link,-0.008179450415038035,-0.0015018031771926884,0.01806873327825697,-0.9998021877256673,1.0,0.0,0.0,0.0,1.0,0.0,0.0,0.0,1.0,0.0016125498805195093,0.0002894662320613864,0.002337789162993431,1.2184696791468346e-07,0.0,0.0,0.0,1.2184696791468346e-07,0.0,0.0,0.0,1.2184696791468346e-07,-0.0398637019097805,0.09196792542934537,9.782727241516113,8.999999999999999e-08,0.0,0.0,0.0,8.999999999999999e-08,0.0,0.0,0.0,8.999999999999999e-08
1758792836796583352,36080,1758792836793709504,base_link,-0.00817446490384035,-0.0015085713683734812,0.01807497101183655,-0.9998021034319703,1.0,0.0,0.0,0.0,1.0,0.0,0.0,0.0,1.0,0.0001065162941813469,0.0022291073109954596,-0.0008055089274421338,1.2184696791468346e-07,0.0,0.0,0.0,1.2184696791468346e-07,0.0,0.0,0.0,1.2184696791468346e-07,-0.0398637019097805,0.09196792542934537,9.782727241516113,8.999999999999999e-08,0.0,0.0,0.0,8.999999999999999e-08,0.0,0.0,0.0,8.999999999999999e-08
1758792836800211192,36081,1758792836795709504,base_link,-0.008183703954015095,-0.0015040224721845905,0.018059924586918158,-0.9998023141662129,1.0,0.0,0.0,0.0,1.0,0.0,0.0,0.0,1.0,0.0018474619137123227,0.0005466297734528781,0.0010459976037964225,1.2184696791468346e-07,0.0,0.0,0.0,1.2184696791468346e-07,0.0,0.0,0.0,1.2184696791468346e-07,-0.0006088514346629381,0.22599339485168576,9.826244354248047,8.999999999999999e-08,0.0,0.0,0.0,8.999999999999999e-08,0.0,0.0,0.0,8.999999999999999e-08
1758792836807234200,36082,1758792836799708736,base_link,-0.008174010178857589,-0.0015086072590491661,0.018066078026800773,-0.9998023141662129,1.0,0.0,0.0,0.0,1.0,0.0,0.0,0.0,1.0,-0.004145787563174963,-0.0015016882680356498,0.0033403136767446995,1.2184696791468346e-07,0.0,0.0,0.0,1.2184696791468346e-07,0.0,0.0,0.0,1.2184696791468346e-07,-0.032610706984996796,0.17560507357120633,9.753662109375,8.999999999999999e-08,0.0,0.0,0.0,8.999999999999999e-08,0.0,0.0,0.0,8.999999999999999e-08
1758792836815227480,36083,1758792836810708736,base_link,-0.008184147483741222,-0.0015145667575741557,0.018073200844199087,-0.9998021034319703,1.0,0.0,0.0,0.0,1.0,0.0,0.0,0.0,1.0,0.004295778460800648,0.0011802308727055784,-0.0043211281299591064,1.2184696791468346e-07,0.0,0.0,0.0,1.2184696791468346e-07,0.0,0.0,0.0,1.2184696791468346e-07,-0.04460073262453079,0.1487203836441052,9.762300491333008,8.999999999999999e-08,0.0,0.0,0.0,8.999999999999999e-08,0.0,0.0,0.0,8.999999999999999e-08
1758792836828048408,36084,1758792836823708736,base_link,-0.008171833030714198,-0.0015142812785299453,0.01807050344589438,-0.9998021877256673,1.0,0.0,0.0,0.0,1.0,0.0,0.0,0.0,1.0,-0.0024808943271636963,-0.0017736759036779402,0.0015237235929816963,1.2184696791468346e-07,0.0,0.0,0.0,1.2184696791468346e-07,0.0,0.0,0.0,1.2184696791468346e-07,-0.013976979069411755,0.19646739959716916,9.823785781860352,8.999999999999999e-08,0.0,0.0,0.0,8.999999999999999e-08,0.0,0.0,0.0,8.999999999999999e-08
1758792836836166936,36085,1758792836829708736,base_link,-0.00817233978071309,-0.0015106925402336934,0.018082641738265567,-0.9998020191382733,1.0,0.0,0.0,0.0,1.0,0.0,0.0,0.0,1.0,0.00016304291784763336,-0.0012849359773099425,-0.0018223546212539075,1.2184696791468346e-07,0.0,0.0,0.0,1.2184696791468346e-07,0.0,0.0,0.0,1.2184696791468346e-07,-0.03191281855106354,0.10946714878082395,9.767738342285156,8.999999999999999e-08,0.0,0.0,0.0,8.999999999999999e-08,0.0,0.0,0.0,8.999999999999999e-08
1758792836846263704,36086,1758792836838708736,base_link,-0.008164302244993161,-0.0014866727878495316,0.018070672033288424,-0.9998023563130614,1.0,0.0,0.0,0.0,1.0,0.0,0.0,0.0,1.0,-0.0014167064800858498,-0.0011956179514527319,0.0019033274147659542,1.2184696791468346e-07,0.0,0.0,0.0,1.2184696791468346e-07,0.0,0.0,0.0,1.2184696791468346e-07,-0.013481882400810719,0.20330971479416013,9.800445556640625,8.999999999999999e-08,0.0,0.0,0.0,8.999999999999999e-08,0.0,0.0,0.0,8.999999999999999e-08
1758792836851443480,36087,1758792836843708736,base_link,-0.008164365465265928,-0.001495196329416352,0.018067005257468016,-0.9998023984599099,1.0,0.0,0.0,0.0,1.0,0.0,0.0,0.0,1.0,-0.0017868001013994217,0.0012931532692164187,0.0037804506719112396,1.2184696791468346e-07,0.0,0.0,0.0,1.2184696791468346e-07,0.0,0.0,0.0,1.2184696791468346e-07,-0.0669650286436081,0.1818392276763928,9.795613288879395,8.999999999999999e-08,0.0,0.0,0.0,8.999999999999999e-08,0.0,0.0,0.0,8.999999999999999e-08
1758792836859070200,36088,1758792836853708736,base_link,-0.008158019401114753,-0.0015008561901902093,0.018070714180136935,-0.9998023141662129,1.0,0.0,0.0,0.0,1.0,0.0,0.0,0.0,1.0,-0.0022501680068671703,0.0014282446354627607,-0.0012934325495734813,1.2184696791468346e-07,0.0,0.0,0.0,1.2184696791468346e-07,0.0,0.0,0.0,1.2184696791468346e-07,-0.026905138045549393,0.11978344619274259,9.798044204711914,8.999999999999999e-08,0.0,0.0,0.0,8.999999999999999e-08,0.0,0.0,0.0,8.999999999999999e-08
1758792836871415256,36089,1758792836858708736,base_link,-0.008155812947740758,-0.0015117244794777022,0.018076741179474016,-0.9998021877256673,1.0,0.0,0.0,0.0,1.0,0.0,0.0,0.0,1.0,0.00282177678309381,0.0007474361918866634,0.00031093490542843927,1.2184696791468346e-07,0.0,0.0,0.0,1.2184696791468346e-07,0.0,0.0,0.0,1.2184696791468346e-07,-0.009033802896738052,0.1915481686592114,9.828446388244629,8.999999999999999e-08,0.0,0.0,0.0,8.999999999999999e-08,0.0,0.0,0.0,8.999999999999999e-08
1758792836877515576,36090,1758792836873708736,base_link,-0.008163320025859505,-0.0015140046898365926,0.018068522544014413,-0.9998023141662129,1.0,0.0,0.0,0.0,1.0,0.0,0.0,0.0,1.0,0.0015215410385280848,0.00029412657022476196,0.00013969617430120704,1.2184696791468346e-07,0.0,0.0,0.0,1.2184696791468346e-07,0.0,0.0,0.0,1.2184696791468346e-07,-0.05132877454161644,0.10832648724317671,9.821327209472656,8.999999999999999e-08,0.0,0.0,0.0,8.999999999999999e-08,0.0,0.0,0.0,8.999999999999999e-08
1758792836889507928,36091,1758792836883708736,base_link,-0.008172201157094161,-0.0015090168737331314,0.01805916594364496,-0.9998023984599099,1.0,0.0,0.0,0.0,1.0,0.0,0.0,0.0,1.0,0.0012043137103319168,-0.001218508929014206,7.503526285290733e-05,1.2184696791468346e-07,0.0,0.0,0.0,1.2184696791468346e-07,0.0,0.0,0.0,1.2184696791468346e-07,-0.034888748079538345,0.19090822339058042,9.81800651550293,8.999999999999999e-08,0.0,0.0,0.0,8.999999999999999e-08,0.0,0.0,0.0,8.999999999999999e-08
1758792836897644024,36092,1758792836888708736,base_link,-0.008175555782817825,-0.0014945868464742143,0.018065614411467153,-0.9998022720193643,1.0,0.0,0.0,0.0,1.0,0.0,0.0,0.0,1.0,-0.0026506008580327034,-0.00316705834120512,0.0007248622132465248,1.2184696791468346e-07,0.0,0.0,0.0,1.2184696791468346e-07,0.0,0.0,0.0,1.2184696791468346e-07,-0.06284010410308838,0.16356579959392667,9.838126182556152,8.999999999999999e-08,0.0,0.0,0.0,8.999999999999999e-08,0.0,0.0,0.0,8.999999999999999e-08
1758792836903325240,36093,1758792836898708736,base_link,-0.008183900529550727,-0.0014918904359862788,0.018091829751240924,-0.9998017662571822,1.0,0.0,0.0,0.0,1.0,0.0,0.0,0.0,1.0,0.001991263823583722,-0.0006450186483561998,-0.004162664525210857,1.2184696791468346e-07,0.0,0.0,0.0,1.2184696791468346e-07,0.0,0.0,0.0,1.2184696791468346e-07,-0.032883018255233765,0.14757731556892514,9.815808296203613,8.999999999999999e-08,0.0,0.0,0.0,8.999999999999999e-08,0.0,0.0,0.0,8.999999999999999e-08
1758792836910270296,36094,1758792836903710784,base_link,-0.008175841261862035,-0.0014983145376616502,0.018085212696024686,-0.9998019769914248,1.0,0.0,0.0,0.0,1.0,0.0,0.0,0.0,1.0,-0.00023199757561087608,0.00036952877417206726,-0.0029369196854531765,1.2184696791468346e-07,0.0,0.0,0.0,1.2184696791468346e-07,0.0,0.0,0.0,1.2184696791468346e-07,-0.0031243725679814816,0.20809176564216733,9.8060884475708,8.999999999999999e-08,0.0,0.0,0.0,8.999999999999999e-08,0.0,0.0,0.0,8.999999999999999e-08
1758792836920601432,36095,1758792836913710784,base_link,-0.008178933457599269,-0.0014961943536182,0.018090607492634102,-0.9998018084040307,1.0,0.0,0.0,0.0,1.0,0.0,0.0,0.0,1.0,0.0009521485771983862,0.0005584112368524073,-0.0007330151274800302,1.2184696791468346e-07,0.0,0.0,0.0,1.2184696791468346e-07,0.0,0.0,0.0,1.2184696791468346e-07,-0.06728457659482956,0.10441218316555143,9.763768196105957,8.999999999999999e-08,0.0,0.0,0.0,8.999999999999999e-08,0.0,0.0,0.0,8.999999999999999e-08
1758792836936213432,36096,1758792836933710784,base_link,-0.008168450416848945,-0.0015063237559677358,0.01808082942377959,-0.9998020612851218,1.0,0.0,0.0,0.0,1.0,0.0,0.0,0.0,1.0,-0.0006348118185997009,0.0007509421557188041,0.005008048843592405,1.2184696791468346e-07,0.0,0.0,0.0,1.2184696791468346e-07,0.0,0.0,0.0,1.2184696791468346e-07,-0.03362436965107918,0.11613672226667524,9.791226387023926,8.999999999999999e-08,0.0,0.0,0.0,8.999999999999999e-08,0.0,0.0,0.0,8.999999999999999e-08
1758792836953959640,36097,1758792836942710784,base_link,-0.008173446135486503,-0.0015038733118535323,0.018079775752566814,-0.9998020191382733,1.0,0.0,0.0,0.0,1.0,0.0,0.0,0.0,1.0,0.001969003351405263,-0.002206193283200264,-0.0015398933319374917,1.2184696791468346e-07,0.0,0.0,0.0,1.2184696791468346e-07,0.0,0.0,0.0,1.2184696791468346e-07,-0.05078960582613945,0.09821784496307492,9.777153968811035,8.999999999999999e-08,0.0,0.0,0.0,8.999999999999999e-08,0.0,0.0,0.0,8.999999999999999e-08
1758792836955546360,36098,1758792836948710784,base_link,-0.008173441196402693,-0.0014918512525880538,0.018097730310032416,-0.9998017662571822,1.0,0.0,0.0,0.0,1.0,0.0,0.0,0.0,1.0,-0.0013793916441500187,-0.0007702126167714599,-0.0024789143353700638,1.2184696791468346e-07,0.0,0.0,0.0,1.2184696791468346e-07,0.0,0.0,0.0,1.2184696791468346e-07,-0.016172265633940697,0.24490174651146054,9.831183433532715,8.999999999999999e-08,0.0,0.0,0.0,8.999999999999999e-08,0.0,0.0,0.0,8.999999999999999e-08
1758792836980891384,36099,1758792836973710784,base_link,-0.008149772448241286,-0.0014981001814243016,0.018097772456880983,-0.9998018926977278,1.0,0.0,0.0,0.0,1.0,0.0,0.0,0.0,1.0,-0.0016291411593556404,0.0006924022454768421,0.0019261469133198261,1.2184696791468346e-07,0.0,0.0,0.0,1.2184696791468346e-07,0.0,0.0,0.0,1.2184696791468346e-07,-0.02615487575531006,0.2051044851541531,9.833802223205566,8.999999999999999e-08,0.0,0.0,0.0,8.999999999999999e-08,0.0,0.0,0.0,8.999999999999999e-08
1758792836987160280,36100,1758792836982710784,base_link,-0.00814557784899769,-0.0014901459515846323,0.01810308295979332,-0.9998018926977278,1.0,0.0,0.0,0.0,1.0,0.0,0.0,0.0,1.0,-0.0014329873956739902,-0.0020472989417612553,-0.00012764718849211907,1.2184696791468346e-07,0.0,0.0,0.0,1.2184696791468346e-07,0.0,0.0,0.0,1.2184696791468346e-07,-0.06894821673631668,0.11214477568864942,9.797527313232422,8.999999999999999e-08,0.0,0.0,0.0,8.999999999999999e-08,0.0,0.0,0.0,8.999999999999999e-08
1758792837003209496,36101,1758792836992710784,base_link,-0.008144538007219586,-0.0015001380474042544,0.01811201809167761,-0.9998017241103337,1.0,0.0,0.0,0.0,1.0,0.0,0.0,0.0,1.0,-0.003598748240619898,-0.00028384337201714516,-4.5598717406392064e-05,1.2184696791468346e-07,0.0,0.0,0.0,1.2184696791468346e-07,0.0,0.0,0.0,1.2184696791468346e-07,-0.06090952083468437,0.2323528379201901,9.81744384765625,8.999999999999999e-08,0.0,0.0,0.0,8.999999999999999e-08,0.0,0.0,0.0,8.999999999999999e-08
1758792837008194552,36102,1758792837003710272,base_link,-0.008134970672607612,-0.0014898858265039792,0.018105232449067383,-0.9998019348445762,1.0,0.0,0.0,0.0,1.0,0.0,0.0,0.0,1.0,-0.0008122678846120834,-0.0015286123380064964,-0.0008064726134762166,1.2184696791468346e-07,0.0,0.0,0.0,1.2184696791468346e-07,0.0,0.0,0.0,1.2184696791468346e-07,-0.07538720220327377,0.12428840249776961,9.806933403015137,8.999999999999999e-08,0.0,0.0,0.0,8.999999999999999e-08,0.0,0.0,0.0,8.999999999999999e-08
1758792837013510680,36103,1758792837007710272,base_link,-0.008133849500582772,-0.0014906382136043496,0.01812116395780451,-0.9998016819634852,1.0,0.0,0.0,0.0,1.0,0.0,0.0,0.0,1.0,-0.000985137652605772,-0.0010372530668973927,-0.00358675979077816,1.2184696791468346e-07,0.0,0.0,0.0,1.2184696791468346e-07,0.0,0.0,0.0,1.2184696791468346e-07,-0.002678382210433483,0.1671612262725842,9.802680969238281,8.999999999999999e-08,0.0,0.0,0.0,8.999999999999999e-08,0.0,0.0,0.0,8.999999999999999e-08
1758792837020542680,36104,1758792837016710272,base_link,-0.008121746111070556,-0.0015006573097487987,0.018128623949990912,-0.9998016398166367,1.0,0.0,0.0,0.0,1.0,0.0,0.0,0.0,1.0,-0.0005518654361367226,-0.00010544667020440112,-0.0009335941867902875,1.2184696791468346e-07,0.0,0.0,0.0,1.2184696791468346e-07,0.0,0.0,0.0,1.2184696791468346e-07,-0.03292546793818474,0.21880578994751096,9.80063247680664,8.999999999999999e-08,0.0,0.0,0.0,8.999999999999999e-08,0.0,0.0,0.0,8.999999999999999e-08
1758792837036200888,36105,1758792837022710272,base_link,-0.008117433632360033,-0.0014922131227951905,0.01811243956016272,-0.9998019769914248,1.0,0.0,0.0,0.0,1.0,0.0,0.0,0.0,1.0,0.0020708637312054634,-0.00016630860045552292,-0.002998015843331814,1.2184696791468346e-07,0.0,0.0,0.0,1.2184696791468346e-07,0.0,0.0,0.0,1.2184696791468346e-07,-0.044172417372465134,0.10826052725315215,9.837641716003418,8.999999999999999e-08,0.0,0.0,0.0,8.999999999999999e-08,0.0,0.0,0.0,8.999999999999999e-08
1758792837044621496,36106,1758792837037710272,base_link,-0.008115752038958899,-0.0014910498039218388,0.01813258575375095,-0.9998015555229396,1.0,0.0,0.0,0.0,1.0,0.0,0.0,0.0,1.0,-0.0022788504138588905,-0.0010062032379209997,-0.00123800931032747,1.2184696791468346e-07,0.0,0.0,0.0,1.2184696791468346e-07,0.0,0.0,0.0,1.2184696791468346e-07,-0.019242390990257263,0.22571711242199063,9.842626571655273,8.999999999999999e-08,0.0,0.0,0.0,8.999999999999999e-08,0.0,0.0,0.0,8.999999999999999e-08
1758792837049971480,36107,1758792837046710272,base_link,-0.008108839955803112,-0.0014943010381577497,0.018130689145567952,-0.9998016819634852,1.0,0.0,0.0,0.0,1.0,0.0,0.0,0.0,1.0,-0.0016550985164940357,-0.001217663288116455,4.6278582885861546e-05,1.2184696791468346e-07,0.0,0.0,0.0,1.2184696791468346e-07,0.0,0.0,0.0,1.2184696791468346e-07,-0.06647460162639618,0.15469637513160825,9.808708190917969,8.999999999999999e-08,0.0,0.0,0.0,8.999999999999999e-08,0.0,0.0,0.0,8.999999999999999e-08
1758792837054499992,36108,1758792837048710272,base_link,-0.008114073079735797,-0.0014944126614518526,0.018138697046785057,-0.9998015133760911,1.0,0.0,0.0,0.0,1.0,0.0,0.0,0.0,1.0,0.0007798934821039438,-0.000443781726062298,-0.0011143953306600451,1.2184696791468346e-07,0.0,0.0,0.0,1.2184696791468346e-07,0.0,0.0,0.0,1.2184696791468346e-07,-0.07852832973003387,0.12085244059562802,9.792539596557617,8.999999999999999e-08,0.0,0.0,0.0,8.999999999999999e-08,0.0,0.0,0.0,8.999999999999999e-08
1758792837069326776,36109,1758792837063710272,base_link,-0.008117870905913333,-0.0014839424623194354,0.018140467214422466,-0.9998014290823941,1.0,0.0,0.0,0.0,1.0,0.0,0.0,0.0,1.0,-4.690373316407204e-05,-0.001597492955625057,0.002458272036164999,1.2184696791468346e-07,0.0,0.0,0.0,1.2184696791468346e-07,0.0,0.0,0.0,1.2184696791468346e-07,-0.035442184656858444,0.16427132487297177,9.785440444946289,8.999999999999999e-08,0.0,0.0,0.0,8.999999999999999e-08,0.0,0.0,0.0,8.999999999999999e-08
1758792837075861528,36110,1758792837067710272,base_link,-0.008115269984379055,-0.0014996372243059337,0.018131658523083707,-0.9998015555229397,1.0,0.0,0.0,0.0,1.0,0.0,0.0,0.0,1.0,-0.0027144807390868664,-0.0007075783796608447,0.0012671921867877245,1.2184696791468346e-07,0.0,0.0,0.0,1.2184696791468346e-07,0.0,0.0,0.0,1.2184696791468346e-07,-0.03163839131593704,0.111554339528085,9.794967651367188,8.999999999999999e-08,0.0,0.0,0.0,8.999999999999999e-08,0.0,0.0,0.0,8.999999999999999e-08
1758792837096229880,36111,1758792837087710272,base_link,-0.008148649629855174,-0.0014957076892268006,0.018123608475018153,-0.9998015133760911,1.0,0.0,0.0,0.0,1.0,0.0,0.0,0.0,1.0,0.005057933274656534,0.00026064924895763413,0.001422353321686387,1.2184696791468346e-07,0.0,0.0,0.0,1.2184696791468346e-07,0.0,0.0,0.0,1.2184696791468346e-07,-0.10924030095338821,0.13944031298160672,9.788788795471191,8.999999999999999e-08,0.0,0.0,0.0,8.999999999999999e-08,0.0,0.0,0.0,8.999999999999999e-08
1758792837106424120,36112,1758792837097710272,base_link,-0.008150678276212017,-0.0015105621484211127,0.01813637897011695,-0.9998012183481516,1.0,0.0,0.0,0.0,1.0,0.0,0.0,0.0,1.0,0.0020767664536833763,0.0014966176822781558,-0.0028472812846302986,1.2184696791468346e-07,0.0,0.0,0.0,1.2184696791468346e-07,0.0,0.0,0.0,1.2184696791468346e-07,-0.014924643561244011,0.189040392637254,9.797430992126465,8.999999999999999e-08,0.0,0.0,0.0,8.999999999999999e-08,0.0,0.0,0.0,8.999999999999999e-08
1758792837108546744,36113,1758792837102712832,base_link,-0.008165054961365787,-0.0015110112757755572,0.018128708243687935,-0.9998012183481516,1.0,0.0,0.0,0.0,1.0,0.0,0.0,0.0,1.0,0.0023666515480726957,0.00140717183239758,-0.0013919795164838435,1.2184696791468346e-07,0.0,0.0,0.0,1.2184696791468346e-07,0.0,0.0,0.0,1.2184696791468346e-07,-0.010955274105072021,0.1939004212617886,9.784255981445312,8.999999999999999e-08,0.0,0.0,0.0,8.999999999999999e-08,0.0,0.0,0.0,8.999999999999999e-08
1758792837119289400,36114,1758792837112712832,base_link,-0.008162597931806502,-0.0015097837488126774,0.01812381920926071,-0.9998013026418486,1.0,0.0,0.0,0.0,1.0,0.0,0.0,0.0,1.0,0.00164189119823277,0.00026311306282877884,-0.002881718333810568,1.2184696791468346e-07,0.0,0.0,0.0,1.2184696791468346e-07,0.0,0.0,0.0,1.2184696791468346e-07,-0.03764376789331436,0.11402235180139661,9.782344818115234,8.999999999999999e-08,0.0,0.0,0.0,8.999999999999999e-08,0.0,0.0,0.0,8.999999999999999e-08
1758792837125234264,36115,1758792837117712832,base_link,-0.008163915020822468,-0.001512842029507749,0.018151931157217475,-0.9998007547328179,1.0,0.0,0.0,0.0,1.0,0.0,0.0,0.0,1.0,-0.0018556322902441025,0.0004943332169204944,-0.0055794441141188145,1.2184696791468346e-07,0.0,0.0,0.0,1.2184696791468346e-07,0.0,0.0,0.0,1.2184696791468346e-07,-0.009665701538324356,0.19642917811870694,9.768280029296875,8.999999999999999e-08,0.0,0.0,0.0,8.999999999999999e-08,0.0,0.0,0.0,8.999999999999999e-08
1758792837132823896,36116,1758792837127712832,base_link,-0.008144946963359042,-0.0015036889193912975,0.018154459968128082,-0.999800923320212,1.0,0.0,0.0,0.0,1.0,0.0,0.0,0.0,1.0,-0.002735619433224201,-0.0014760480262339115,-0.0008031054167076943,1.2184696791468346e-07,0.0,0.0,0.0,1.2184696791468346e-07,0.0,0.0,0.0,1.2184696791468346e-07,-0.03113708645105362,0.18996565043926358,9.804376602172852,8.999999999999999e-08,0.0,0.0,0.0,8.999999999999999e-08,0.0,0.0,0.0,8.999999999999999e-08
1758792837138251672,36117,1758792837132712832,base_link,-0.008141499482859752,-0.001498730079246187,0.018148770143579147,-0.9998010497607576,1.0,0.0,0.0,0.0,1.0,0.0,0.0,0.0,1.0,-0.0020415508188307285,-0.002780475188046694,9.42175975069407e-05,1.2184696791468346e-07,0.0,0.0,0.0,1.2184696791468346e-07,0.0,0.0,0.0,1.2184696791468346e-07,-0.07611092925071716,0.08198969066143155,9.784543991088867,8.999999999999999e-08,0.0,0.0,0.0,8.999999999999999e-08,0.0,0.0,0.0,8.999999999999999e-08
1758792837149175032,36118,1758792837142712832,base_link,-0.008115520560564343,-0.0014905601760801534,0.018153659178006373,-0.9998012183481516,1.0,0.0,0.0,0.0,1.0,0.0,0.0,0.0,1.0,-0.0006181038916110992,0.00025779078714549536,-0.0002261345507577062,1.2184696791468346e-07,0.0,0.0,0.0,1.2184696791468346e-07,0.0,0.0,0.0,1.2184696791468346e-07,-0.015613184310495853,0.16910718381404996,9.795722007751465,8.999999999999999e-08,0.0,0.0,0.0,8.999999999999999e-08,0.0,0.0,0.0,8.999999999999999e-08
1758792837155313048,36119,1758792837147712832,base_link,-0.008126174164342232,-0.0015047975790704862,0.01815020313642852,-0.9998011340544546,1.0,0.0,0.0,0.0,1.0,0.0,0.0,0.0,1.0,0.003388377372175455,0.0002498566173017028,0.0026661409065127373,1.2184696791468346e-07,0.0,0.0,0.0,1.2184696791468346e-07,0.0,0.0,0.0,1.2184696791468346e-07,-0.01998499408364296,0.17970408499240995,9.81636905670166,8.999999999999999e-08,0.0,0.0,0.0,8.999999999999999e-08,0.0,0.0,0.0,8.999999999999999e-08
1758792837164104280,36120,1758792837157712832,base_link,-0.008158681896889784,-0.0014974745641417183,0.018133470837569686,-0.999801176201303,1.0,0.0,0.0,0.0,1.0,0.0,0.0,0.0,1.0,0.007013624534010887,-0.0004440885968506333,0.0027580843307077885,1.2184696791468346e-07,0.0,0.0,0.0,1.2184696791468346e-07,0.0,0.0,0.0,1.2184696791468346e-07,-0.053918011486530304,0.09439419955015302,9.769926071166992,8.999999999999999e-08,0.0,0.0,0.0,8.999999999999999e-08,0.0,0.0,0.0,8.999999999999999e-08
1758792837175280568,36121,1758792837171712832,base_link,-0.008155557103199406,-0.0014844182607264527,0.018151130367095765,-0.9998009654670605,1.0,0.0,0.0,0.0,1.0,0.0,0.0,0.0,1.0,0.0011185393668711185,-0.005252426024526358,-9.618443436920579e-05,1.2184696791468346e-07,0.0,0.0,0.0,1.2184696791468346e-07,0.0,0.0,0.0,1.2184696791468346e-07,-0.022246144711971283,0.2312970757484448,9.806852340698242,8.999999999999999e-08,0.0,0.0,0.0,8.999999999999999e-08,0.0,0.0,0.0,8.999999999999999e-08
1758792837178305944,36122,1758792837172712832,base_link,-0.00814638884655927,-0.0014701179667356082,0.018142490263150998,-0.999801176201303,1.0,0.0,0.0,0.0,1.0,0.0,0.0,0.0,1.0,-0.0017875060439109802,-0.003914457280188799,0.0014202313032001261,1.2184696791468346e-07,0.0,0.0,0.0,1.2184696791468346e-07,0.0,0.0,0.0,1.2184696791468346e-07,-0.024690773338079453,0.1786154955625546,9.805004119873047,8.999999999999999e-08,0.0,0.0,0.0,8.999999999999999e-08,0.0,0.0,0.0,8.999999999999999e-08
1758792837188615320,36123,1758792837177712832,base_link,-0.008150562043106357,-0.0014780093055747649,0.018143923256000373,-0.999801091907606,1.0,0.0,0.0,0.0,1.0,0.0,0.0,0.0,1.0,-0.0001959668006747961,0.00037755770608782714,-0.004467975348234177,1.2184696791468346e-07,0.0,0.0,0.0,1.2184696791468346e-07,0.0,0.0,0.0,1.2184696791468346e-07,-0.05056998133659363,0.15647245943546415,9.77299976348877,8.999999999999999e-08,0.0,0.0,0.0,8.999999999999999e-08,0.0,0.0,0.0,8.999999999999999e-08
1758792837196242968,36124,1758792837192712832,base_link,-0.008159330563230148,-0.0014966533591402637,0.018159812617888987,-0.9998007125859695,1.0,0.0,0.0,0.0,1.0,0.0,0.0,0.0,1.0,0.0031109037809073925,0.0035660350695252423,0.0018919854192063208,1.2184696791468346e-07,0.0,0.0,0.0,1.2184696791468346e-07,0.0,0.0,0.0,1.2184696791468346e-07,-0.024722885340452194,0.16055820882320523,9.781050682067871,8.999999999999999e-08,0.0,0.0,0.0,8.999999999999999e-08,0.0,0.0,0.0,8.999999999999999e-08
1758792837207984024,36125,1758792837202712576,base_link,-0.008165507710715024,-0.0014915792737062571,0.018142363822605465,-0.9998010497607576,1.0,0.0,0.0,0.0,1.0,0.0,0.0,0.0,1.0,-0.00013316120021045208,-0.0005140979774296284,-5.088793113827699e-05,1.2184696791468346e-07,0.0,0.0,0.0,1.2184696791468346e-07,0.0,0.0,0.0,1.2184696791468346e-07,-0.01898682489991188,0.09471256285905957,9.778539657592773,8.999999999999999e-08,0.0,0.0,0.0,8.999999999999999e-08,0.0,0.0,0.0,8.999999999999999e-08
1758792837219193976,36126,1758792837207712576,base_link,-0.00815061670230052,-0.0015031887548374845,0.01814379681545484,-0.9998010497607576,1.0,0.0,0.0,0.0,1.0,0.0,0.0,0.0,1.0,-0.0020673642866313457,-0.0010676649399101732,0.001863591140136123,1.2184696791468346e-07,0.0,0.0,0.0,1.2184696791468346e-07,0.0,0.0,0.0,1.2184696791468346e-07,0.00178139703348279,0.23183366656303525,9.809226036071777,8.999999999999999e-08,0.0,0.0,0.0,8.999999999999999e-08,0.0,0.0,0.0,8.999999999999999e-08
1758792837228049560,36127,1758792837221712576,base_link,-0.008146349663161046,-0.0014931219142162062,0.01814185806042333,-0.9998011340544546,1.0,0.0,0.0,0.0,1.0,0.0,0.0,0.0,1.0,-0.0010073650628328323,-0.0015160441398620608,-0.001816724776290357,1.2184696791468346e-07,0.0,0.0,0.0,1.2184696791468346e-07,0.0,0.0,0.0,1.2184696791468346e-07,-0.05338883027434349,0.11954377591610076,9.805270195007324,8.999999999999999e-08,0.0,0.0,0.0,8.999999999999999e-08,0.0,0.0,0.0,8.999999999999999e-08
1758792837237809144,36128,1758792837232712576,base_link,-0.008146758948572756,-0.001494662579092632,0.01814978166794341,-0.9998010497607576,1.0,0.0,0.0,0.0,1.0,0.0,0.0,0.0,1.0,-0.0003695851191878319,0.0012569804675877092,-0.001610953942872584,1.2184696791468346e-07,0.0,0.0,0.0,1.2184696791468346e-07,0.0,0.0,0.0,1.2184696791468346e-07,-0.02420714870095253,0.21656154096126676,9.818375587463379,8.999999999999999e-08,0.0,0.0,0.0,8.999999999999999e-08,0.0,0.0,0.0,8.999999999999999e-08
1758792837247302168,36129,1758792837241712576,base_link,-0.008142568629868462,-0.0014768680479424312,0.018141605179332266,-0.9998012183481516,1.0,0.0,0.0,0.0,1.0,0.0,0.0,0.0,1.0,-0.0013789106160402298,-0.004675400909036398,-0.00010597170330583992,1.2184696791468346e-07,0.0,0.0,0.0,1.2184696791468346e-07,0.0,0.0,0.0,1.2184696791468346e-07,-0.06113552674651146,0.09624844044447066,9.814197540283203,8.999999999999999e-08,0.0,0.0,0.0,8.999999999999999e-08,0.0,0.0,0.0,8.999999999999999e-08
1758792837262282872,36130,1758792837251712576,base_link,-0.008147956841032778,-0.0014777057165565848,0.01814737929757828,-0.999801091907606,1.0,0.0,0.0,0.0,1.0,0.0,0.0,0.0,1.0,-0.0012048864737153053,0.0001532251480966807,0.00036999897565692663,1.2184696791468346e-07,0.0,0.0,0.0,1.2184696791468346e-07,0.0,0.0,0.0,1.2184696791468346e-07,0.02611326053738594,0.1786995232105267,9.837095260620117,8.999999999999999e-08,0.0,0.0,0.0,8.999999999999999e-08,0.0,0.0,0.0,8.999999999999999e-08
1758792837271235288,36131,1758792837265712576,base_link,-0.008127064845789279,-0.0014635058506032074,0.01811716000719596,-0.9998018084040308,1.0,0.0,0.0,0.0,1.0,0.0,0.0,0.0,1.0,0.0001799862366169691,0.0004363977350294592,0.0017674993723630905,1.2184696791468346e-07,0.0,0.0,0.0,1.2184696791468346e-07,0.0,0.0,0.0,1.2184696791468346e-07,-0.055975910276174545,0.13804589211940885,9.78520679473877,8.999999999999999e-08,0.0,0.0,0.0,8.999999999999999e-08,0.0,0.0,0.0,8.999999999999999e-08
1758792837278183736,36132,1758792837274712576,base_link,-0.0081197862826148,-0.001457012272482244,0.018126348020171313,-0.9998017241103337,1.0,0.0,0.0,0.0,1.0,0.0,0.0,0.0,1.0,-0.001922267023473978,3.7726014852523546e-05,-0.0020813564769923687,1.2184696791468346e-07,0.0,0.0,0.0,1.2184696791468346e-07,0.0,0.0,0.0,1.2184696791468346e-07,-0.01700367033481598,0.20947958528995633,9.815451622009277,8.999999999999999e-08,0.0,0.0,0.0,8.999999999999999e-08,0.0,0.0,0.0,8.999999999999999e-08
1758792837288999704,36133,1758792837279712576,base_link,-0.008124330239719882,-0.00144184006556283,0.018119056615378954,-0.9998018505508792,1.0,0.0,0.0,0.0,1.0,0.0,0.0,0.0,1.0,-0.0033221528865396976,-0.002241056878119707,-0.0008443765109404918,1.2184696791468346e-07,0.0,0.0,0.0,1.2184696791468346e-07,0.0,0.0,0.0,1.2184696791468346e-07,-0.046477943658828735,0.21640250086784482,9.801669120788574,8.999999999999999e-08,0.0,0.0,0.0,8.999999999999999e-08,0.0,0.0,0.0,8.999999999999999e-08
1758792837293767608,36134,1758792837289712576,base_link,-0.008109542293520875,-0.001445626367211477,0.01811682283240787,-0.9998019769914248,1.0,0.0,0.0,0.0,1.0,0.0,0.0,0.0,1.0,-0.0030285674147307873,0.0003154380246996879,-0.0005853519542142749,1.2184696791468346e-07,0.0,0.0,0.0,1.2184696791468346e-07,0.0,0.0,0.0,1.2184696791468346e-07,-0.03425022214651108,0.1552840620279324,9.807234764099121,8.999999999999999e-08,0.0,0.0,0.0,8.999999999999999e-08,0.0,0.0,0.0,8.999999999999999e-08
1758792837305343128,36135,1758792837294712320,base_link,-0.00810215605831934,-0.0014371140209012922,0.018122596950653883,-0.9998019348445762,1.0,0.0,0.0,0.0,1.0,0.0,0.0,0.0,1.0,-0.0025517423637211323,-0.0003231209702789779,0.003758271224796772,1.2184696791468346e-07,0.0,0.0,0.0,1.2184696791468346e-07,0.0,0.0,0.0,1.2184696791468346e-07,-0.020244434475898743,0.20734842121601224,9.81019401550293,8.999999999999999e-08,0.0,0.0,0.0,8.999999999999999e-08,0.0,0.0,0.0,8.999999999999999e-08
1758792837310240632,36136,1758792837304712320,base_link,-0.00810396508008277,-0.0014531923850636902,0.0180988261280937,-0.9998023563130614,1.0,0.0,0.0,0.0,1.0,0.0,0.0,0.0,1.0,0.0028000734746456146,0.0026061786338686947,0.004435680340975523,1.2184696791468346e-07,0.0,0.0,0.0,1.2184696791468346e-07,0.0,0.0,0.0,1.2184696791468346e-07,-0.06388512998819351,0.14249669015407682,9.786964416503906,8.999999999999999e-08,0.0,0.0,0.0,8.999999999999999e-08,0.0,0.0,0.0,8.999999999999999e-08
1758792837318736696,36137,1758792837309712320,base_link,-0.008111620989260323,-0.0014550208338901043,0.018095117205424782,-0.9998023563130614,1.0,0.0,0.0,0.0,1.0,0.0,0.0,0.0,1.0,0.0011994545347988605,-0.0006718649528920654,-0.0030569350346922874,1.2184696791468346e-07,0.0,0.0,0.0,1.2184696791468346e-07,0.0,0.0,0.0,1.2184696791468346e-07,-0.06809499859809875,0.115437798202039,9.79067325592041,8.999999999999999e-08,0.0,0.0,0.0,8.999999999999999e-08,0.0,0.0,0.0,8.999999999999999e-08
1758792837328195992,36138,1758792837323712320,base_link,-0.00812721334757583,-0.0014343866588214815,0.018088331562814502,-0.9998023984599099,1.0,0.0,0.0,0.0,1.0,0.0,0.0,0.0,1.0,0.0018215675372630358,-0.003748905379325151,0.003619056195020676,1.2184696791468346e-07,0.0,0.0,0.0,1.2184696791468346e-07,0.0,0.0,0.0,1.2184696791468346e-07,-0.0663222074508667,0.1982727050781262,9.788057327270508,8.999999999999999e-08,0.0,0.0,0.0,8.999999999999999e-08,0.0,0.0,0.0,8.999999999999999e-08
1758792837339404632,36139,1758792837334712320,base_link,-0.008106683551811721,-0.0014336678574910185,0.018104558099491203,-0.9998022720193643,1.0,0.0,0.0,0.0,1.0,0.0,0.0,0.0,1.0,-0.002852414269000292,-0.001410296652466059,-0.002560500055551529,1.2184696791468346e-07,0.0,0.0,0.0,1.2184696791468346e-07,0.0,0.0,0.0,1.2184696791468346e-07,-0.015834622085094452,0.13983277976513028,9.793205261230469,8.999999999999999e-08,0.0,0.0,0.0,8.999999999999999e-08,0.0,0.0,0.0,8.999999999999999e-08
1758792837350207480,36140,1758792837338712320,base_link,-0.008102368109650912,-0.0014486069396546066,0.018111259448404464,-0.9998021455788189,1.0,0.0,0.0,0.0,1.0,0.0,0.0,0.0,1.0,-0.0025615165941417217,0.001378985121846199,-5.630252417176979e-05,1.2184696791468346e-07,0.0,0.0,0.0,1.2184696791468346e-07,0.0,0.0,0.0,1.2184696791468346e-07,-0.024394243955612183,0.2515399158000958,9.836777687072754,8.999999999999999e-08,0.0,0.0,0.0,8.999999999999999e-08,0.0,0.0,0.0,8.999999999999999e-08
1758792837355209368,36141,1758792837349712320,base_link,-0.008087606175959971,-0.0014541275182650259,0.018100259120943075,-0.9998024406067584,1.0,0.0,0.0,0.0,1.0,0.0,0.0,0.0,1.0,-0.002949486020952463,0.002306361217051745,0.0020880559459328647,1.2184696791468346e-07,0.0,0.0,0.0,1.2184696791468346e-07,0.0,0.0,0.0,1.2184696791468346e-07,-0.0600832998752594,0.12297402322292447,9.795291900634766,8.999999999999999e-08,0.0,0.0,0.0,8.999999999999999e-08,0.0,0.0,0.0,8.999999999999999e-08
1758792837364597560,36142,1758792837353712320,base_link,-0.008083470516449838,-0.0014581558350203563,0.01810805628791762,-0.9998023141662129,1.0,0.0,0.0,0.0,1.0,0.0,0.0,0.0,1.0,0.001962635200470686,0.0019413942936807869,-0.0016298737609758975,1.2184696791468346e-07,0.0,0.0,0.0,1.2184696791468346e-07,0.0,0.0,0.0,1.2184696791468346e-07,-0.06669493019580841,0.11025594174862029,9.813239097595215,8.999999999999999e-08,0.0,0.0,0.0,8.999999999999999e-08,0.0,0.0,0.0,8.999999999999999e-08
1758792837373646360,36143,1758792837368712320,base_link,-0.008095718127209302,-0.00146951177651601,0.018093557772029874,-0.999802482753607,1.0,0.0,0.0,0.0,1.0,0.0,0.0,0.0,1.0,-0.0004032794386148453,0.00036031147465109863,0.0029240245930850506,1.2184696791468346e-07,0.0,0.0,0.0,1.2184696791468346e-07,0.0,0.0,0.0,1.2184696791468346e-07,-0.08006851375102997,0.16901662945747495,9.798587799072266,8.999999999999999e-08,0.0,0.0,0.0,8.999999999999999e-08,0.0,0.0,0.0,8.999999999999999e-08
1758792837386748568,36144,1758792837379712320,base_link,-0.00807722059979683,-0.0014699092081265775,0.01809617087663756,-0.999802567047304,1.0,0.0,0.0,0.0,1.0,0.0,0.0,0.0,1.0,-0.0020917137153446674,0.0024257353506982322,-0.0032370300032198433,1.2184696791468346e-07,0.0,0.0,0.0,1.2184696791468346e-07,0.0,0.0,0.0,1.2184696791468346e-07,-0.021664895117282867,0.14401465654373288,9.773597717285156,8.999999999999999e-08,0.0,0.0,0.0,8.999999999999999e-08,0.0,0.0,0.0,8.999999999999999e-08
1758792837395136600,36145,1758792837383712320,base_link,-0.008091322013346263,-0.0014872750268020817,0.018108098434766136,-0.9998021877256673,1.0,0.0,0.0,0.0,1.0,0.0,0.0,0.0,1.0,0.0023367060348391533,0.0010623948182910685,0.0028127324767410755,1.2184696791468346e-07,0.0,0.0,0.0,1.2184696791468346e-07,0.0,0.0,0.0,1.2184696791468346e-07,-0.002457329072058201,0.20819976925850034,9.803183555603027,8.999999999999999e-08,0.0,0.0,0.0,8.999999999999999e-08,0.0,0.0,0.0,8.999999999999999e-08
1758792837403328216,36146,1758792837398712320,base_link,-0.008108162313504398,-0.001490704068055148,0.018093642065726896,-0.9998023141662129,1.0,0.0,0.0,0.0,1.0,0.0,0.0,0.0,1.0,0.0026347474195063114,-0.00015507219359278665,0.0010092415614053607,1.2184696791468346e-07,0.0,0.0,0.0,1.2184696791468346e-07,0.0,0.0,0.0,1.2184696791468346e-07,-0.028040703386068344,0.15047530829906583,9.79755687713623,8.999999999999999e-08,0.0,0.0,0.0,8.999999999999999e-08,0.0,0.0,0.0,8.999999999999999e-08
1758792837419123128,36147,1758792837409713344,base_link,-0.008099082631100585,-0.0014847300815509826,0.018091703310695387,-0.9998024827536068,1.0,0.0,0.0,0.0,1.0,0.0,0.0,0.0,1.0,0.0004651104100048542,4.7073233872652176e-05,0.0009948629885911942,1.2184696791468346e-07,0.0,0.0,0.0,1.2184696791468346e-07,0.0,0.0,0.0,1.2184696791468346e-07,-0.03801201656460762,0.22281233966350675,9.812588691711426,8.999999999999999e-08,0.0,0.0,0.0,8.999999999999999e-08,0.0,0.0,0.0,8.999999999999999e-08
1758792837422298104,36148,1758792837413713344,base_link,-0.008114644696368726,-0.0014817113135263899,0.01808668783572257,-0.9998024406067584,1.0,0.0,0.0,0.0,1.0,0.0,0.0,0.0,1.0,0.00094365025870502,-0.005484110210090876,0.001157434424385429,1.2184696791468346e-07,0.0,0.0,0.0,1.2184696791468346e-07,0.0,0.0,0.0,1.2184696791468346e-07,-0.03835488483309746,0.1294129043817532,9.769295692443848,8.999999999999999e-08,0.0,0.0,0.0,8.999999999999999e-08,0.0,0.0,0.0,8.999999999999999e-08
1758792837430305240,36149,1758792837424713344,base_link,-0.00810305760575077,-0.0014694492147877517,0.018096887373062247,-0.9998023563130614,1.0,0.0,0.0,0.0,1.0,0.0,0.0,0.0,1.0,-0.0019904007203876972,-0.0005289176478981975,-0.0029045846313238144,1.2184696791468346e-07,0.0,0.0,0.0,1.2184696791468346e-07,0.0,0.0,0.0,1.2184696791468346e-07,-0.022080324590206146,0.1667429208755505,9.78529167175293,8.999999999999999e-08,0.0,0.0,0.0,8.999999999999999e-08,0.0,0.0,0.0,8.999999999999999e-08
1758792837439245048,36150,1758792837428713344,base_link,-0.008094317403040823,-0.0014686095705400736,0.018098868274942212,-0.9998023984599099,1.0,0.0,0.0,0.0,1.0,0.0,0.0,0.0,1.0,-0.004294017795473337,-0.0021115764975547786,0.004407527856528759,1.2184696791468346e-07,0.0,0.0,0.0,1.2184696791468346e-07,0.0,0.0,0.0,1.2184696791468346e-07,-0.046223659068346024,0.19863340258598447,9.822009086608887,8.999999999999999e-08,0.0,0.0,0.0,8.999999999999999e-08,0.0,0.0,0.0,8.999999999999999e-08
1758792837448993464,36151,1758792837443713344,base_link,-0.00809253110106292,-0.001478042232800164,0.018095285792818827,-0.9998024406067584,1.0,0.0,0.0,0.0,1.0,0.0,0.0,0.0,1.0,0.0026347562670707703,0.001796473981812596,-0.0011578396661207082,1.2184696791468346e-07,0.0,0.0,0.0,1.2184696791468346e-07,0.0,0.0,0.0,1.2184696791468346e-07,-0.018494026735424995,0.1342758536338818,9.793647766113281,8.999999999999999e-08,0.0,0.0,0.0,8.999999999999999e-08,0.0,0.0,0.0,8.999999999999999e-08
1758792837465159672,36152,1758792837454713344,base_link,-0.008116870906077961,-0.0014706171434726591,0.018078890668748078,-0.9998025670473039,1.0,0.0,0.0,0.0,1.0,0.0,0.0,0.0,1.0,-0.000940016470849514,-0.002739249262958764,0.005780178587883711,1.2184696791468346e-07,0.0,0.0,0.0,1.2184696791468346e-07,0.0,0.0,0.0,1.2184696791468346e-07,-8.49463976919651e-05,0.21414995193481565,9.855551719665527,8.999999999999999e-08,0.0,0.0,0.0,8.999999999999999e-08,0.0,0.0,0.0,8.999999999999999e-08
1758792837467505816,36153,1758792837463713344,base_link,-0.008112170544652235,-0.0014703237618943527,0.018067173844862058,-0.999802819928395,1.0,0.0,0.0,0.0,1.0,0.0,0.0,0.0,1.0,0.0005542824510484934,-0.001816571224480867,0.0032650646753609185,1.2184696791468346e-07,0.0,0.0,0.0,1.2184696791468346e-07,0.0,0.0,0.0,1.2184696791468346e-07,-0.06142270937561989,0.11697640269994855,9.791936874389648,8.999999999999999e-08,0.0,0.0,0.0,8.999999999999999e-08,0.0,0.0,0.0,8.999999999999999e-08
1758792837479437304,36154,1758792837472713344,base_link,-0.008117615390644236,-0.0014750876728650997,0.01806953406837868,-0.999802735634698,1.0,0.0,0.0,0.0,1.0,0.0,0.0,0.0,1.0,0.0009237844496965408,0.0001898875925689934,-0.0012618551263585687,1.2184696791468346e-07,0.0,0.0,0.0,1.2184696791468346e-07,0.0,0.0,0.0,1.2184696791468346e-07,-0.029347974807024002,0.22678972780704618,9.811751365661621,8.999999999999999e-08,0.0,0.0,0.0,8.999999999999999e-08,0.0,0.0,0.0,8.999999999999999e-08
1758792837485648632,36155,1758792837481713344,base_link,-0.008128695401991045,-0.0014785746660348682,0.018071093501773532,-0.9998026091941524,1.0,0.0,0.0,0.0,1.0,0.0,0.0,0.0,1.0,-0.0003463486209511757,0.0016963286325335503,0.00019080733181908705,1.2184696791468346e-07,0.0,0.0,0.0,1.2184696791468346e-07,0.0,0.0,0.0,1.2184696791468346e-07,-0.04588865861296654,0.1488586515188229,9.766131401062012,8.999999999999999e-08,0.0,0.0,0.0,8.999999999999999e-08,0.0,0.0,0.0,8.999999999999999e-08
1758792837497564632,36156,1758792837490713344,base_link,-0.00811655579253089,-0.0014739055854732705,0.01808668783572257,-0.9998024406067584,1.0,0.0,0.0,0.0,1.0,0.0,0.0,0.0,1.0,0.0005532859358936548,-0.00011152727529406583,-0.00290984520688653,1.2184696791468346e-07,0.0,0.0,0.0,1.2184696791468346e-07,0.0,0.0,0.0,1.2184696791468346e-07,-0.02716100960969925,0.14150740206241727,9.796089172363281,8.999999999999999e-08,0.0,0.0,0.0,8.999999999999999e-08,0.0,0.0,0.0,8.999999999999999e-08
1758792837505315832,36157,1758792837500713344,base_link,-0.008131002283402508,-0.0014681913947775045,0.018064687180799906,-0.9998026934878494,1.0,0.0,0.0,0.0,1.0,0.0,0.0,0.0,1.0,0.0034145477693527937,-0.0006412388756871218,0.004859637003391981,1.2184696791468346e-07,0.0,0.0,0.0,1.2184696791468346e-07,0.0,0.0,0.0,1.2184696791468346e-07,-0.06111498177051544,0.15509535372257352,9.820080757141113,8.999999999999999e-08,0.0,0.0,0.0,8.999999999999999e-08,0.0,0.0,0.0,8.999999999999999e-08
1758792837518716312,36158,1758792837509716160,base_link,-0.008136220260811509,-0.0014694620564056572,0.01805659498588578,-0.9998027777815465,1.0,0.0,0.0,0.0,1.0,0.0,0.0,0.0,1.0,-0.0004999293014407158,-0.0009150099940598016,-0.004082581494003534,1.2184696791468346e-07,0.0,0.0,0.0,1.2184696791468346e-07,0.0,0.0,0.0,1.2184696791468346e-07,-0.07227496802806854,0.10905195027589919,9.805018424987793,8.999999999999999e-08,0.0,0.0,0.0,8.999999999999999e-08,0.0,0.0,0.0,8.999999999999999e-08
1758792837527239928,36159,1758792837519716160,base_link,-0.008109131032475639,-0.0014476721357255251,0.018077626263292748,-0.9998026513410009,1.0,0.0,0.0,0.0,1.0,0.0,0.0,0.0,1.0,-0.0037166806869208813,-0.0022476613521575928,0.0017312777927145364,1.2184696791468346e-07,0.0,0.0,0.0,1.2184696791468346e-07,0.0,0.0,0.0,1.2184696791468346e-07,-0.03658873215317726,0.22362001240253568,9.812162399291992,8.999999999999999e-08,0.0,0.0,0.0,8.999999999999999e-08,0.0,0.0,0.0,8.999999999999999e-08
1758792837540652920,36160,1758792837533716160,base_link,-0.008117815588174662,-0.0014678680494240853,0.018078300612868924,-0.9998025670473039,1.0,0.0,0.0,0.0,1.0,0.0,0.0,0.0,1.0,0.00290786218829453,0.002255813684314489,-0.003912912681698799,1.2184696791468346e-07,0.0,0.0,0.0,1.2184696791468346e-07,0.0,0.0,0.0,1.2184696791468346e-07,-0.025813955813646317,0.15861114859581113,9.800599098205566,8.999999999999999e-08,0.0,0.0,0.0,8.999999999999999e-08,0.0,0.0,0.0,8.999999999999999e-08
1758792837555412792,36161,1758792837549716160,base_link,-0.008105641075855584,-0.0014631508951134051,0.018065487970921616,-0.9998029042220921,1.0,0.0,0.0,0.0,1.0,0.0,0.0,0.0,1.0,-0.0004917238838970661,-0.0006685992702841757,0.0021153888665139675,1.2184696791468346e-07,0.0,0.0,0.0,1.2184696791468346e-07,0.0,0.0,0.0,1.2184696791468346e-07,-0.059652749449014664,0.11650177091360212,9.789267539978027,8.999999999999999e-08,0.0,0.0,0.0,8.999999999999999e-08,0.0,0.0,0.0,8.999999999999999e-08
1758792837562554488,36162,1758792837554716160,base_link,-0.008121966723480731,-0.001476247699015911,0.01807619327044337,-0.9998025670473039,1.0,0.0,0.0,0.0,1.0,0.0,0.0,0.0,1.0,0.0044658067636191845,0.0006277479697018863,0.0005261763581074773,1.2184696791468346e-07,0.0,0.0,0.0,1.2184696791468346e-07,0.0,0.0,0.0,1.2184696791468346e-07,-0.059652749449014664,0.11650177091360212,9.789267539978027,8.999999999999999e-08,0.0,0.0,0.0,8.999999999999999e-08,0.0,0.0,0.0,8.999999999999999e-08
1758792837571809496,36163,1758792837564716160,base_link,-0.008133815914812865,-0.0014627883663617604,0.018056089223703706,-0.9998028620752435,1.0,0.0,0.0,0.0,1.0,0.0,0.0,0.0,1.0,0.0024501089937984943,-0.0012124283239245413,0.0020070397295057774,1.2184696791468346e-07,0.0,0.0,0.0,1.2184696791468346e-07,0.0,0.0,0.0,1.2184696791468346e-07,-0.027871347963809967,0.1665339320898068,9.779942512512207,8.999999999999999e-08,0.0,0.0,0.0,8.999999999999999e-08,0.0,0.0,0.0,8.999999999999999e-08
1758792837576274360,36164,1758792837569716160,base_link,-0.008141918646439083,-0.001477170978416103,0.018055709902067105,-0.999802735634698,1.0,0.0,0.0,0.0,1.0,0.0,0.0,0.0,1.0,0.002987117040902376,-0.0011141709983348849,-0.0011822906089946625,1.2184696791468346e-07,0.0,0.0,0.0,1.2184696791468346e-07,0.0,0.0,0.0,1.2184696791468346e-07,-0.08877208083868027,0.10658701509237409,9.79306697845459,8.999999999999999e-08,0.0,0.0,0.0,8.999999999999999e-08,0.0,0.0,0.0,8.999999999999999e-08
1758792837605714616,36165,1758792837599716160,base_link,-0.008118552828751348,-0.0014559612354475037,0.018088921618693656,-0.9998023984599099,1.0,0.0,0.0,0.0,1.0,0.0,0.0,0.0,1.0,1.879851333796978e-05,0.00017589097842574073,-0.0037708799354732037,1.2184696791468346e-07,0.0,0.0,0.0,1.2184696791468346e-07,0.0,0.0,0.0,1.2184696791468346e-07,-0.02583424746990204,0.1919361650943768,9.791312217712402,8.999999999999999e-08,0.0,0.0,0.0,8.999999999999999e-08,0.0,0.0,0.0,8.999999999999999e-08
1758792837615310712,36166,1758792837609722048,base_link,-0.008114174166317772,-0.001442141678947486,0.018080323661597456,-0.999802567047304,1.0,0.0,0.0,0.0,1.0,0.0,0.0,0.0,1.0,-0.0007944703102111816,-0.001148096285760403,-0.00099055387545377,1.2184696791468346e-07,0.0,0.0,0.0,1.2184696791468346e-07,0.0,0.0,0.0,1.2184696791468346e-07,-0.0006060411687940359,0.2052689939737332,9.83238410949707,8.999999999999999e-08,0.0,0.0,0.0,8.999999999999999e-08,0.0,0.0,0.0,8.999999999999999e-08
1758792837619152088,36167,1758792837614722048,base_link,-0.008111819869701734,-0.0014444762192282851,0.01808247315087152,-0.9998026091941524,1.0,0.0,0.0,0.0,1.0,0.0,0.0,0.0,1.0,0.00023792125284671783,-0.0016511846333742144,-0.0011616173433139918,1.2184696791468346e-07,0.0,0.0,0.0,1.2184696791468346e-07,0.0,0.0,0.0,1.2184696791468346e-07,-0.05025811865925789,0.15105634927749753,9.813461303710938,8.999999999999999e-08,0.0,0.0,0.0,8.999999999999999e-08,0.0,0.0,0.0,8.999999999999999e-08
1758792837628261720,36168,1758792837623722048,base_link,-0.008112186349720425,-0.001452171641076317,0.018102787931853742,-0.9998021877256673,1.0,0.0,0.0,0.0,1.0,0.0,0.0,0.0,1.0,-0.000600733794271946,0.0001619083341211076,-0.0038376525044441223,1.2184696791468346e-07,0.0,0.0,0.0,1.2184696791468346e-07,0.0,0.0,0.0,1.2184696791468346e-07,-0.051059409976005554,0.09309782832861067,9.837782859802246,8.999999999999999e-08,0.0,0.0,0.0,8.999999999999999e-08,0.0,0.0,0.0,8.999999999999999e-08
1758792837636853080,36169,1758792837629722048,base_link,-0.008108318059280535,-0.0014398970299920274,0.018097266694698848,-0.9998023984599099,1.0,0.0,0.0,0.0,1.0,0.0,0.0,0.0,1.0,0.00015603681094944477,0.0007842199411243204,0.0022518886253237724,1.2184696791468346e-07,0.0,0.0,0.0,1.2184696791468346e-07,0.0,0.0,0.0,1.2184696791468346e-07,-0.03821808099746704,0.20584695041179776,9.81791877746582,8.999999999999999e-08,0.0,0.0,0.0,8.999999999999999e-08,0.0,0.0,0.0,8.999999999999999e-08
1758792837651264760,36170,1758792837644722048,base_link,-0.0081091606669785,-0.0014476280132434904,0.018121037517258975,-0.9998018926977278,1.0,0.0,0.0,0.0,1.0,0.0,0.0,0.0,1.0,-0.00043977610766887665,-0.0007046139799058443,-0.00465497886762023,1.2184696791468346e-07,0.0,0.0,0.0,1.2184696791468346e-07,0.0,0.0,0.0,1.2184696791468346e-07,0.0002317335456609726,0.1939554214477551,9.809745788574219,8.999999999999999e-08,0.0,0.0,0.0,8.999999999999999e-08,0.0,0.0,0.0,8.999999999999999e-08
1758792837657577016,36171,1758792837648722048,base_link,-0.008090466564030395,-0.0014356280152190292,0.018125968698534767,-0.9998020191382733,1.0,0.0,0.0,0.0,1.0,0.0,0.0,0.0,1.0,-0.003428081516176462,-0.002210849896073341,0.0027459841221570973,1.2184696791468346e-07,0.0,0.0,0.0,1.2184696791468346e-07,0.0,0.0,0.0,1.2184696791468346e-07,-0.021697230637073517,0.20151478052139402,9.773918151855469,8.999999999999999e-08,0.0,0.0,0.0,8.999999999999999e-08,0.0,0.0,0.0,8.999999999999999e-08
1758792837665161176,36172,1758792837659722048,base_link,-0.008083955205207716,-0.001416737336735291,0.018105864651795048,-0.9998023984599098,1.0,0.0,0.0,0.0,1.0,0.0,0.0,0.0,1.0,-0.0011387555859982967,-0.004119647201150656,0.0019507817924022679,1.2184696791468346e-07,0.0,0.0,0.0,1.2184696791468346e-07,0.0,0.0,0.0,1.2184696791468346e-07,-0.059636190533638,0.11292045563459516,9.794550895690918,8.999999999999999e-08,0.0,0.0,0.0,8.999999999999999e-08,0.0,0.0,0.0,8.999999999999999e-08
1758792837678330936,36173,1758792837674722048,base_link,-0.00807739643118046,-0.0014087745458170177,0.018119520230712578,-0.9998022298725158,1.0,0.0,0.0,0.0,1.0,0.0,0.0,0.0,1.0,-0.0020347689278423786,-0.00033764122053980833,-0.0005771941505372524,1.2184696791468346e-07,0.0,0.0,0.0,1.2184696791468346e-07,0.0,0.0,0.0,1.2184696791468346e-07,-0.03195442631840706,0.18563441932201505,9.832074165344238,8.999999999999999e-08,0.0,0.0,0.0,8.999999999999999e-08,0.0,0.0,0.0,8.999999999999999e-08
1758792837683207448,36174,1758792837678722048,base_link,-0.008067904829186906,-0.0014268469827495877,0.01811699141980191,-0.9998023141662129,1.0,0.0,0.0,0.0,1.0,0.0,0.0,0.0,1.0,-0.005140783730894327,0.003237703815102577,0.0017246294301003213,1.2184696791468346e-07,0.0,0.0,0.0,1.2184696791468346e-07,0.0,0.0,0.0,1.2184696791468346e-07,-0.02678622677922249,0.12673602998256803,9.75830078125,8.999999999999999e-08,0.0,0.0,0.0,8.999999999999999e-08,0.0,0.0,0.0,8.999999999999999e-08
1758792837695524504,36175,1758792837689722048,base_link,-0.008078338149826876,-0.0014234870886698596,0.01812196474792622,-0.9998021455788189,1.0,0.0,0.0,0.0,1.0,0.0,0.0,0.0,1.0,0.0028913444839417934,6.4631924033165e-05,0.00018428271869197488,1.2184696791468346e-07,0.0,0.0,0.0,1.2184696791468346e-07,0.0,0.0,0.0,1.2184696791468346e-07,-0.026468712836503983,0.2017482966184628,9.803489685058594,8.999999999999999e-08,0.0,0.0,0.0,8.999999999999999e-08,0.0,0.0,0.0,8.999999999999999e-08
1758792837702171768,36176,1758792837693722048,base_link,-0.00808777673898754,-0.0014205944319185455,0.018122891978593462,-0.9998020612851218,1.0,0.0,0.0,0.0,1.0,0.0,0.0,0.0,1.0,-0.002293297089636326,-0.0023689847439527507,0.003462007269263268,1.2184696791468346e-07,0.0,0.0,0.0,1.2184696791468346e-07,0.0,0.0,0.0,1.2184696791468346e-07,-0.025160256773233414,0.1936497688293469,9.79549789428711,8.999999999999999e-08,0.0,0.0,0.0,8.999999999999999e-08,0.0,0.0,0.0,8.999999999999999e-08
1758792837715191800,36177,1758792837708721024,base_link,-0.00808334440517656,-0.0014201785610617546,0.018134103040297347,-0.9998018926977277,1.0,0.0,0.0,0.0,1.0,0.0,0.0,0.0,1.0,0.002407942432910204,0.001223108498379588,-0.00112659705337137,1.2184696791468346e-07,0.0,0.0,0.0,1.2184696791468346e-07,0.0,0.0,0.0,1.2184696791468346e-07,-0.005131895653903484,0.18892356753349424,9.811971664428711,8.999999999999999e-08,0.0,0.0,0.0,8.999999999999999e-08,0.0,0.0,0.0,8.999999999999999e-08
1758792837725069016,36178,1758792837719721024,base_link,-0.008073634495678609,-0.0014215624923452803,0.018110711539373818,-0.9998024406067584,1.0,0.0,0.0,0.0,1.0,0.0,0.0,0.0,1.0,-0.0022760340943932533,-0.0010898415930569168,0.0035313451662659645,1.2184696791468346e-07,0.0,0.0,0.0,1.2184696791468346e-07,0.0,0.0,0.0,1.2184696791468346e-07,-0.08738569915294647,0.14994893968105436,9.813385963439941,8.999999999999999e-08,0.0,0.0,0.0,8.999999999999999e-08,0.0,0.0,0.0,8.999999999999999e-08
1758792837730290840,36179,1758792837723721024,base_link,-0.008082869265314051,-0.0014249052642678003,0.018119393790167044,-0.9998021877256673,1.0,0.0,0.0,0.0,1.0,0.0,0.0,0.0,1.0,-0.0020241476595401764,-0.0009006145410239694,0.001782939652912319,1.2184696791468346e-07,0.0,0.0,0.0,1.2184696791468346e-07,0.0,0.0,0.0,1.2184696791468346e-07,-0.07646913826465607,0.08101703971624495,9.818602561950684,8.999999999999999e-08,0.0,0.0,0.0,8.999999999999999e-08,0.0,0.0,0.0,8.999999999999999e-08
1758792837737395800,36180,1758792837734721024,base_link,-0.008057659193731711,-0.0014165585419013734,0.018115600573801047,-0.9998024406067584,1.0,0.0,0.0,0.0,1.0,0.0,0.0,0.0,1.0,-0.003527930937707424,-0.0018385662697255614,-0.0015119534218683837,1.2184696791468346e-07,0.0,0.0,0.0,1.2184696791468346e-07,0.0,0.0,0.0,1.2184696791468346e-07,-0.024041365832090378,0.16021734476089597,9.7967529296875,8.999999999999999e-08,0.0,0.0,0.0,8.999999999999999e-08,0.0,0.0,0.0,8.999999999999999e-08
1758792837747268760,36181,1758792837738721024,base_link,-0.008071625934929261,-0.0014217732265878347,0.018107339791492934,-0.9998025249004554,1.0,0.0,0.0,0.0,1.0,0.0,0.0,0.0,1.0,0.004112367983907461,0.0007829857058823111,0.0016460241749882698,1.2184696791468346e-07,0.0,0.0,0.0,1.2184696791468346e-07,0.0,0.0,0.0,1.2184696791468346e-07,-0.041404612362384796,0.16892886161804319,9.797115325927734,8.999999999999999e-08,0.0,0.0,0.0,8.999999999999999e-08,0.0,0.0,0.0,8.999999999999999e-08
1758792837754276504,36182,1758792837749721024,base_link,-0.008092642065812514,-0.0014143586739724572,0.01811614848283169,-0.9998022298725159,1.0,0.0,0.0,0.0,1.0,0.0,0.0,0.0,1.0,0.0019758972339332104,-0.0005549439229071144,-0.0027208756655454636,1.2184696791468346e-07,0.0,0.0,0.0,1.2184696791468346e-07,0.0,0.0,0.0,1.2184696791468346e-07,-0.023719243705272675,0.12483440339565398,9.833845138549805,8.999999999999999e-08,0.0,0.0,0.0,8.999999999999999e-08,0.0,0.0,0.0,8.999999999999999e-08
1758792837763364024,36183,1758792837753721024,base_link,-0.008090185036253231,-0.0014220498152811875,0.01811538983955849,-0.9998022298725159,1.0,0.0,0.0,0.0,1.0,0.0,0.0,0.0,1.0,-0.0010890373960137367,0.00032904394902288914,-0.00018084247130900624,1.2184696791468346e-07,0.0,0.0,0.0,1.2184696791468346e-07,0.0,0.0,0.0,1.2184696791468346e-07,-0.004181484691798687,0.22656248509884,9.823545455932617,8.999999999999999e-08,0.0,0.0,0.0,8.999999999999999e-08,0.0,0.0,0.0,8.999999999999999e-08
1758792837769216344,36184,1758792837762721024,base_link,-0.008089569955682776,-0.001425951691490985,0.01811454690258827,-0.9998022298725159,1.0,0.0,0.0,0.0,1.0,0.0,0.0,0.0,1.0,-0.001217652577906847,-0.0009649349376559255,0.00209029926918447,1.2184696791468346e-07,0.0,0.0,0.0,1.2184696791468346e-07,0.0,0.0,0.0,1.2184696791468346e-07,-0.04847363382577896,0.19450372457504392,9.806483268737793,8.999999999999999e-08,0.0,0.0,0.0,8.999999999999999e-08,0.0,0.0,0.0,8.999999999999999e-08
1758792837773830744,36185,1758792837768721024,base_link,-0.008085853459751975,-0.0014116938736209053,0.018113914699860605,-0.9998022720193643,1.0,0.0,0.0,0.0,1.0,0.0,0.0,0.0,1.0,0.00034156162291765213,-0.0005214447155594829,-0.002907103393226862,1.2184696791468346e-07,0.0,0.0,0.0,1.2184696791468346e-07,0.0,0.0,0.0,1.2184696791468346e-07,-0.051652777940034866,0.10410176217556119,9.785670280456543,8.999999999999999e-08,0.0,0.0,0.0,8.999999999999999e-08,0.0,0.0,0.0,8.999999999999999e-08
1758792837788689400,36186,1758792837779721024,base_link,-0.008091722737679372,-0.0014119444498061928,0.01812322915338155,-0.9998020612851218,1.0,0.0,0.0,0.0,1.0,0.0,0.0,0.0,1.0,0.0014384151436388493,-0.0008853971958160397,0.002653332892805338,1.2184696791468346e-07,0.0,0.0,0.0,1.2184696791468346e-07,0.0,0.0,0.0,1.2184696791468346e-07,-0.008518501184880733,0.2302209436893475,9.783807754516602,8.999999999999999e-08,0.0,0.0,0.0,8.999999999999999e-08,0.0,0.0,0.0,8.999999999999999e-08
1758792837791231544,36187,1758792837783721024,base_link,-0.008100220266738126,-0.0014030340133409324,0.01810278793185374,-0.9998023563130614,1.0,0.0,0.0,0.0,1.0,0.0,0.0,0.0,1.0,-0.001014084555208683,-0.0014989092014729972,0.003726361785084009,1.2184696791468346e-07,0.0,0.0,0.0,1.2184696791468346e-07,0.0,0.0,0.0,1.2184696791468346e-07,-0.04033621400594711,0.17417430877685666,9.775221824645996,8.999999999999999e-08,0.0,0.0,0.0,8.999999999999999e-08,0.0,0.0,0.0,8.999999999999999e-08
1758792837799360216,36188,1758792837794721024,base_link,-0.008088552175145688,-0.0014035621660363345,0.018130014795991776,-0.9998019348445762,1.0,0.0,0.0,0.0,1.0,0.0,0.0,0.0,1.0,-0.000679421704262495,-0.0008254027925431733,-0.0031455259304493666,1.2184696791468346e-07,0.0,0.0,0.0,1.2184696791468346e-07,0.0,0.0,0.0,1.2184696791468346e-07,-0.024900123476982117,0.15231567621231198,9.811173439025879,8.999999999999999e-08,0.0,0.0,0.0,8.999999999999999e-08,0.0,0.0,0.0,8.999999999999999e-08
1758792837806366968,36189,1758792837798721024,base_link,-0.008097423757484977,-0.0014087577529320644,0.018119435937015555,-0.9998020612851217,1.0,0.0,0.0,0.0,1.0,0.0,0.0,0.0,1.0,0.0018782720435410738,-0.0002956814132630828,-0.0021023289300501347,1.2184696791468346e-07,0.0,0.0,0.0,1.2184696791468346e-07,0.0,0.0,0.0,1.2184696791468346e-07,-0.031275972723960876,0.20714634656906247,9.835147857666016,8.999999999999999e-08,0.0,0.0,0.0,8.999999999999999e-08,0.0,0.0,0.0,8.999999999999999e-08
1758792837826376728,36190,1758792837822726144,base_link,-0.008109430999499026,-0.0014275954185829097,0.018132332872659886,-0.9998017241103336,1.0,0.0,0.0,0.0,1.0,0.0,0.0,0.0,1.0,0.0011821917723864317,0.0002556410618126393,0.0005971638020128012,1.2184696791468346e-07,0.0,0.0,0.0,1.2184696791468346e-07,0.0,0.0,0.0,1.2184696791468346e-07,-0.06233851984143257,0.1458234041929257,9.786669731140137,8.999999999999999e-08,0.0,0.0,0.0,8.999999999999999e-08,0.0,0.0,0.0,8.999999999999999e-08
1758792837830218968,36191,1758792837823726144,base_link,-0.00811110501963832,-0.001420784092736845,0.018100638442579677,-0.9998023141662129,1.0,0.0,0.0,0.0,1.0,0.0,0.0,0.0,1.0,0.00018253130838274956,-0.0010515796020627015,0.004983909428119659,1.2184696791468346e-07,0.0,0.0,0.0,1.2184696791468346e-07,0.0,0.0,0.0,1.2184696791468346e-07,-0.014244461432099342,0.23640531301498532,9.806693077087402,8.999999999999999e-08,0.0,0.0,0.0,8.999999999999999e-08,0.0,0.0,0.0,8.999999999999999e-08
1758792837839083032,36192,1758792837828726144,base_link,-0.008104473147170678,-0.001413867729041756,0.018103377987732896,-0.9998023563130614,1.0,0.0,0.0,0.0,1.0,0.0,0.0,0.0,1.0,-0.001528643537312746,-0.0012181522324681278,0.00424797972664237,1.2184696791468346e-07,0.0,0.0,0.0,1.2184696791468346e-07,0.0,0.0,0.0,1.2184696791468346e-07,-0.07782716304063797,0.15266726911068082,9.809292793273926,8.999999999999999e-08,0.0,0.0,0.0,8.999999999999999e-08,0.0,0.0,0.0,8.999999999999999e-08
1758792837849791128,36193,1758792837843726144,base_link,-0.008103981543695469,-0.0014186550183425365,0.018099795505609455,-0.9998023984599099,1.0,0.0,0.0,0.0,1.0,0.0,0.0,0.0,1.0,0.0006516973953694105,-0.000387655571103096,5.090888589620595e-05,1.2184696791468346e-07,0.0,0.0,0.0,1.2184696791468346e-07,0.0,0.0,0.0,1.2184696791468346e-07,-0.014500966295599937,0.18341138958931089,9.796329498291016,8.999999999999999e-08,0.0,0.0,0.0,8.999999999999999e-08,0.0,0.0,0.0,8.999999999999999e-08
1758792837860224440,36194,1758792837852726144,base_link,-0.008113162971225765,-0.0014190349985236425,0.01808786794748088,-0.9998025249004554,1.0,0.0,0.0,0.0,1.0,0.0,0.0,0.0,1.0,-0.00033005187287926674,0.0013474109582602982,0.0026918486692011356,1.2184696791468346e-07,0.0,0.0,0.0,1.2184696791468346e-07,0.0,0.0,0.0,1.2184696791468346e-07,-0.05693580210208893,0.1931067109107983,9.811310768127441,8.999999999999999e-08,0.0,0.0,0.0,8.999999999999999e-08,0.0,0.0,0.0,8.999999999999999e-08
1758792837867199928,36195,1758792837858726144,base_link,-0.008097421781851452,-0.0014235289062461164,0.01809305200984774,-0.9998025670473039,1.0,0.0,0.0,0.0,1.0,0.0,0.0,0.0,1.0,-0.0006415704265236855,-0.0004963907413184646,-0.002341214334592223,1.2184696791468346e-07,0.0,0.0,0.0,1.2184696791468346e-07,0.0,0.0,0.0,1.2184696791468346e-07,-0.02623140439391136,0.16465058922767759,9.813636779785156,8.999999999999999e-08,0.0,0.0,0.0,8.999999999999999e-08,0.0,0.0,0.0,8.999999999999999e-08
1758792837877434296,36196,1758792837873726144,base_link,-0.008093090863894705,-0.0014115443840175932,0.018063928537526707,-0.9998031149563346,1.0,0.0,0.0,0.0,1.0,0.0,0.0,0.0,1.0,-0.0015621758066117764,-0.0029820515774190417,0.005334270186722279,1.2184696791468346e-07,0.0,0.0,0.0,1.2184696791468346e-07,0.0,0.0,0.0,1.2184696791468346e-07,-0.06610282510519028,0.13551504909992337,9.790868759155273,8.999999999999999e-08,0.0,0.0,0.0,8.999999999999999e-08,0.0,0.0,0.0,8.999999999999999e-08
1758792837889104824,36197,1758792837878726144,base_link,-0.008095210389393648,-0.001424269768817597,0.018073706606381218,-0.9998029463689405,1.0,0.0,0.0,0.0,1.0,0.0,0.0,0.0,1.0,0.00035563763231039047,-0.0022950740531086926,-0.0025665708817541595,1.2184696791468346e-07,0.0,0.0,0.0,1.2184696791468346e-07,0.0,0.0,0.0,1.2184696791468346e-07,-0.04450754448771477,0.1353139579296124,9.797757148742676,8.999999999999999e-08,0.0,0.0,0.0,8.999999999999999e-08,0.0,0.0,0.0,8.999999999999999e-08
1758792837895358936,36198,1758792837888726144,base_link,-0.008106023031670215,-0.0014220017415321046,0.018077246941656147,-0.9998027777815465,1.0,0.0,0.0,0.0,1.0,0.0,0.0,0.0,1.0,0.002659058663994074,-0.00047087529674172374,0.002102751052007079,1.2184696791468346e-07,0.0,0.0,0.0,1.2184696791468346e-07,0.0,0.0,0.0,1.2184696791468346e-07,-0.007274777628481388,0.24572299420833707,9.842134475708008,8.999999999999999e-08,0.0,0.0,0.0,8.999999999999999e-08,0.0,0.0,0.0,8.999999999999999e-08
1758792837909335032,36199,1758792837901724608,base_link,-0.008102770809617544,-0.001405715606577438,0.018073706606381218,-0.9998028620752435,1.0,0.0,0.0,0.0,1.0,0.0,0.0,0.0,1.0,-0.0009945002384483814,-0.0018935222178697588,-0.0018305610865354536,1.2184696791468346e-07,0.0,0.0,0.0,1.2184696791468346e-07,0.0,0.0,0.0,1.2184696791468346e-07,-0.03285535052418709,0.11672060936689496,9.78744125366211,8.999999999999999e-08,0.0,0.0,0.0,8.999999999999999e-08,0.0,0.0,0.0,8.999999999999999e-08
1758792837916788856,36200,1758792837910724608,base_link,-0.008080201501512212,-0.0013949118546517276,0.018083273940993228,-0.9998029042220921,1.0,0.0,0.0,0.0,1.0,0.0,0.0,0.0,1.0,-0.004354726988822222,-0.0009201793000102045,-0.001870839390903711,1.2184696791468346e-07,0.0,0.0,0.0,1.2184696791468346e-07,0.0,0.0,0.0,1.2184696791468346e-07,-0.009749578312039375,0.20578190684318662,9.822587013244629,8.999999999999999e-08,0.0,0.0,0.0,8.999999999999999e-08,0.0,0.0,0.0,8.999999999999999e-08
1758792837930201208,36201,1758792837921724608,base_link,-0.008089455039666132,-0.001397262529272972,0.018084285465357494,-0.999802819928395,1.0,0.0,0.0,0.0,1.0,0.0,0.0,0.0,1.0,0.0005541692953556776,0.0009722472168505191,-0.0009728923905640842,1.2184696791468346e-07,0.0,0.0,0.0,1.2184696791468346e-07,0.0,0.0,0.0,1.2184696791468346e-07,-0.025152666494250298,0.0861826092004788,9.801532745361328,8.999999999999999e-08,0.0,0.0,0.0,8.999999999999999e-08,0.0,0.0,0.0,8.999999999999999e-08
1758792837935135896,36202,1758792837930724608,base_link,-0.008092872885662563,-0.0014092006241136826,0.018087825800632368,-0.999802735634698,1.0,0.0,0.0,0.0,1.0,0.0,0.0,0.0,1.0,0.001106839394196868,0.0008616168051958082,-0.0018376659136265516,1.2184696791468346e-07,0.0,0.0,0.0,1.2184696791468346e-07,0.0,0.0,0.0,1.2184696791468346e-07,-0.03061104752123356,0.22313429415226102,9.839688301086426,8.999999999999999e-08,0.0,0.0,0.0,8.999999999999999e-08,0.0,0.0,0.0,8.999999999999999e-08
1758792837946598424,36203,1758792837940724608,base_link,-0.008096640089520478,-0.0014007366808248345,0.018088879471845145,-0.9998026934878494,1.0,0.0,0.0,0.0,1.0,0.0,0.0,0.0,1.0,-0.0006556753069162369,-0.001992272213101387,5.963351577520395e-05,1.2184696791468346e-07,0.0,0.0,0.0,1.2184696791468346e-07,0.0,0.0,0.0,1.2184696791468346e-07,-0.03094494342803955,0.1085791140794766,9.798267364501953,8.999999999999999e-08,0.0,0.0,0.0,8.999999999999999e-08,0.0,0.0,0.0,8.999999999999999e-08
1758792837954147320,36204,1758792837945724608,base_link,-0.00809761374757553,-0.001403161770975481,0.018099374037124343,-0.999802482753607,1.0,0.0,0.0,0.0,1.0,0.0,0.0,0.0,1.0,-0.0013456153683364391,-0.0016633383929729466,-0.003720123553648591,1.2184696791468346e-07,0.0,0.0,0.0,1.2184696791468346e-07,0.0,0.0,0.0,1.2184696791468346e-07,-0.02829643338918686,0.1583186388015759,9.793058395385742,8.999999999999999e-08,0.0,0.0,0.0,8.999999999999999e-08,0.0,0.0,0.0,8.999999999999999e-08
