%time,field.header.seq,field.header.stamp,field.header.frame_id,field.orientation.x,field.orientation.y,field.orientation.z,field.orientation.w,field.orientation_covariance0,field.orientation_covariance1,field.orientation_covariance2,field.orientation_covariance3,field.orientation_covariance4,field.orientation_covariance5,field.orientation_covariance6,field.orientation_covariance7,field.orientation_covariance8,field.angular_velocity.x,field.angular_velocity.y,field.angular_velocity.z,field.angular_velocity_covariance0,field.angular_velocity_covariance1,field.angular_velocity_covariance2,field.angular_velocity_covariance3,field.angular_velocity_covariance4,field.angular_velocity_covariance5,field.angular_velocity_covariance6,field.angular_velocity_covariance7,field.angular_velocity_covariance8,field.linear_acceleration.x,field.linear_acceleration.y,field.linear_acceleration.z,field.linear_acceleration_covariance0,field.linear_acceleration_covariance1,field.linear_acceleration_covariance2,field.linear_acceleration_covariance3,field.linear_acceleration_covariance4,field.linear_acceleration_covariance5,field.linear_acceleration_covariance6,field.linear_acceleration_covariance7,field.linear_acceleration_covariance8
30516000000,5684,30516000000,base_link,0.005889440255324696,-0.011864330941099278,0.029813289790605657,-0.9994677103358849,1.0,0.0,0.0,0.0,1.0,0.0,0.0,0.0,1.0,3.043550532311201e-05,0.0012123123742640016,-0.002625318244099617,1.2184696791468346e-07,0.0,0.0,0.0,1.2184696791468346e-07,0.0,0.0,0.0,1.2184696791468346e-07,-0.22329644858837128,-0.14870451390743136,9.764808654785156,8.999999999999999e-08,0.0,0.0,0.0,8.999999999999999e-08,0.0,0.0,0.0,8.999999999999999e-08
30521000000,5685,30521000000,base_link,0.005891249277088125,-0.011862956558711118,0.02981341623115119,-0.9994677524827333,1.0,0.0,0.0,0.0,1.0,0.0,0.0,0.0,1.0,-0.0004127498250454664,-0.00030515203252434747,-0.001353846862912178,1.2184696791468346e-07,0.0,0.0,0.0,1.2184696791468346e-07,0.0,0.0,0.0,1.2184696791468346e-07,-0.163166806101799,-0.18469762802123904,9.83035945892334,8.999999999999999e-08,0.0,0.0,0.0,8.999999999999999e-08,0.0,0.0,0.0,8.999999999999999e-08
30525000000,5686,30525000000,base_link,0.005897256520089943,-0.011863168610042689,0.02981168821036223,-0.999467794629582,1.0,0.0,0.0,0.0,1.0,0.0,0.0,0.0,1.0,-0.0015818586107343435,-0.0006464300677180291,-0.0009297927608713507,1.2184696791468346e-07,0.0,0.0,0.0,1.2184696791468346e-07,0.0,0.0,0.0,1.2184696791468346e-07,-0.18649214506149292,-0.1263626366853702,9.820754051208496,8.999999999999999e-08,0.0,0.0,0.0,8.999999999999999e-08,0.0,0.0,0.0,8.999999999999999e-08
30530000000,5687,30530000000,base_link,0.005902347069136651,-0.011880027349447044,0.029810634539149505,-0.9994675838953393,1.0,0.0,0.0,0.0,1.0,0.0,0.0,0.0,1.0,-0.0027725824620574713,0.0035988232120871544,7.91350612416859e-05,1.2184696791468346e-07,0.0,0.0,0.0,1.2184696791468346e-07,0.0,0.0,0.0,1.2184696791468346e-07,-0.25379982590675354,-0.1342267394065845,9.779597282409668,8.999999999999999e-08,0.0,0.0,0.0,8.999999999999999e-08,0.0,0.0,0.0,8.999999999999999e-08
30535000000,5688,30535000000,base_link,0.005911537057745549,-0.011881604563543664,0.02981387984648487,-0.9994673731610968,1.0,0.0,0.0,0.0,1.0,0.0,0.0,0.0,1.0,-0.002943760948255658,0.0020142728462815285,-0.0008552508079446854,1.2184696791468346e-07,0.0,0.0,0.0,1.2184696791468346e-07,0.0,0.0,0.0,1.2184696791468346e-07,-0.19910506904125214,-0.1086745634675014,9.756169319152832,8.999999999999999e-08,0.0,0.0,0.0,8.999999999999999e-08,0.0,0.0,0.0,8.999999999999999e-08
30541000000,5689,30541000000,base_link,0.005906161358926886,-0.011876754383242372,0.029812109678847343,-0.9994675417484908,1.0,0.0,0.0,0.0,1.0,0.0,0.0,0.0,1.0,0.0003101085894741118,-0.0010841414332389834,-0.0009153418941423296,1.2184696791468346e-07,0.0,0.0,0.0,1.2184696791468346e-07,0.0,0.0,0.0,1.2184696791468346e-07,-0.22903424501419067,-0.14466404914855838,9.802572250366211,8.999999999999999e-08,0.0,0.0,0.0,8.999999999999999e-08,0.0,0.0,0.0,8.999999999999999e-08
30546000000,5690,30546000000,base_link,0.005905332251391336,-0.011879149509617905,0.029812489000483944,-0.9994674996016424,1.0,0.0,0.0,0.0,1.0,0.0,0.0,0.0,1.0,0.0007480853237211704,-0.0004423484206199647,-0.0008524348959326744,1.2184696791468346e-07,0.0,0.0,0.0,1.2184696791468346e-07,0.0,0.0,0.0,1.2184696791468346e-07,-0.18377737700939178,-0.12393933534622072,9.815723419189453,8.999999999999999e-08,0.0,0.0,0.0,8.999999999999999e-08,0.0,0.0,0.0,8.999999999999999e-08
30550000000,5691,30550000000,base_link,0.005891507426535254,-0.011889294387763379,0.029810381658058438,-0.9994674996016424,1.0,0.0,0.0,0.0,1.0,0.0,0.0,0.0,1.0,0.0035610427148640156,0.0017595929093658924,-0.0002773430314846339,1.2184696791468346e-07,0.0,0.0,0.0,1.2184696791468346e-07,0.0,0.0,0.0,1.2184696791468346e-07,-0.17424611747264862,-0.12993668019771457,9.789931297302246,8.999999999999999e-08,0.0,0.0,0.0,8.999999999999999e-08,0.0,0.0,0.0,8.999999999999999e-08
30555000000,5692,30555000000,base_link,0.005890344107661903,-0.011896824514939907,0.02981446990236397,-0.9994672888673998,1.0,0.0,0.0,0.0,1.0,0.0,0.0,0.0,1.0,0.0028290182817727327,0.0034597478806972504,-0.001292260480113328,1.2184696791468346e-07,0.0,0.0,0.0,1.2184696791468346e-07,0.0,0.0,0.0,1.2184696791468346e-07,-0.20298638939857483,-0.14542105793952823,9.754277229309082,8.999999999999999e-08,0.0,0.0,0.0,8.999999999999999e-08,0.0,0.0,0.0,8.999999999999999e-08
30560000000,5693,30560000000,base_link,0.00588535036465787,-0.011909053027908638,0.02981067668599796,-0.9994672888673999,1.0,0.0,0.0,0.0,1.0,0.0,0.0,0.0,1.0,0.0011669782688841224,0.00441344641149044,5.5980170145630294e-05,1.2184696791468346e-07,0.0,0.0,0.0,1.2184696791468346e-07,0.0,0.0,0.0,1.2184696791468346e-07,-0.21175935864448547,-0.1103217825293529,9.733318328857422,8.999999999999999e-08,0.0,0.0,0.0,8.999999999999999e-08,0.0,0.0,0.0,8.999999999999999e-08
30566000000,5694,30566000000,base_link,0.005888972030179522,-0.01191826244358052,0.029809665161633747,-0.9994672045737027,1.0,0.0,0.0,0.0,1.0,0.0,0.0,0.0,1.0,-0.00016848614905029535,0.0023989886976778507,-0.00015156235895119637,1.2184696791468346e-07,0.0,0.0,0.0,1.2184696791468346e-07,0.0,0.0,0.0,1.2184696791468346e-07,-0.22251158952713013,-0.15094493329524875,9.807214736938477,8.999999999999999e-08,0.0,0.0,0.0,8.999999999999999e-08,0.0,0.0,0.0,8.999999999999999e-08
30571000000,5695,30571000000,base_link,0.005881628929643261,-0.011929101098365156,0.02980410177763032,-0.9994672888673998,1.0,0.0,0.0,0.0,1.0,0.0,0.0,0.0,1.0,0.0012887741904705763,0.0025177719071507454,0.0006285790004767474,1.2184696791468346e-07,0.0,0.0,0.0,1.2184696791468346e-07,0.0,0.0,0.0,1.2184696791468346e-07,-0.2583475410938263,-0.1723487824201572,9.809098243713379,8.999999999999999e-08,0.0,0.0,0.0,8.999999999999999e-08,0.0,0.0,0.0,8.999999999999999e-08
30575000000,5696,30575000000,base_link,0.0058782331448878474,-0.011932968400988283,0.02980317454696302,-0.9994672888673997,1.0,0.0,0.0,0.0,1.0,0.0,0.0,0.0,1.0,0.001979402732104063,0.001757454127073288,0.0008136127726174889,1.2184696791468346e-07,0.0,0.0,0.0,1.2184696791468346e-07,0.0,0.0,0.0,1.2184696791468346e-07,-0.2721253037452698,-0.20957715809345126,9.767769813537598,8.999999999999999e-08,0.0,0.0,0.0,8.999999999999999e-08,0.0,0.0,0.0,8.999999999999999e-08
30580000000,5697,30580000000,base_link,0.005872881482943726,-0.011930550554827226,0.029801151498234535,-0.9994673731610968,1.0,0.0,0.0,0.0,1.0,0.0,0.0,0.0,1.0,0.0012651161523535848,-0.00016382103785872462,-0.00017131658387370405,1.2184696791468346e-07,0.0,0.0,0.0,1.2184696791468346e-07,0.0,0.0,0.0,1.2184696791468346e-07,-0.21615001559257507,-0.19057801365852237,9.757009506225586,8.999999999999999e-08,0.0,0.0,0.0,8.999999999999999e-08,0.0,0.0,0.0,8.999999999999999e-08
30585000000,5698,30585000000,base_link,0.005881617075842115,-0.011933479102254224,0.029801235791931502,-0.9994673731610968,1.0,0.0,0.0,0.0,1.0,0.0,0.0,0.0,1.0,-0.0005538060795515776,-0.000475024338811636,-0.0005847220309078692,1.2184696791468346e-07,0.0,0.0,0.0,1.2184696791468346e-07,0.0,0.0,0.0,1.2184696791468346e-07,-0.1946275234222412,-0.18897630274295688,9.768189430236816,8.999999999999999e-08,0.0,0.0,0.0,8.999999999999999e-08,0.0,0.0,0.0,8.999999999999999e-08
30591000000,5699,30591000000,base_link,0.005892487011490878,-0.011933488321877336,0.029809032958906023,-0.9994670781331573,1.0,0.0,0.0,0.0,1.0,0.0,0.0,0.0,1.0,-0.002158938907086849,-0.0003779036924242976,-0.002357671270146966,1.2184696791468346e-07,0.0,0.0,0.0,1.2184696791468346e-07,0.0,0.0,0.0,1.2184696791468346e-07,-0.24454061686992645,-0.20924687385558963,9.783419609069824,8.999999999999999e-08,0.0,0.0,0.0,8.999999999999999e-08,0.0,0.0,0.0,8.999999999999999e-08
30596000000,5700,30596000000,base_link,0.005892056652654913,-0.011929474822373434,0.029806462001146894,-0.9994672045737027,1.0,0.0,0.0,0.0,1.0,0.0,0.0,0.0,1.0,0.0012436332181096077,-0.0011003613471984865,-0.0009619212942197918,1.2184696791468346e-07,0.0,0.0,0.0,1.2184696791468346e-07,0.0,0.0,0.0,1.2184696791468346e-07,-0.21697190403938293,-0.10408052057027697,9.79773235321045,8.999999999999999e-08,0.0,0.0,0.0,8.999999999999999e-08,0.0,0.0,0.0,8.999999999999999e-08
30600000000,5701,30600000000,base_link,0.005887100117415581,-0.011928387236118504,0.02980667273538945,-0.9994671624268542,1.0,0.0,0.0,0.0,1.0,0.0,0.0,0.0,1.0,0.0014505208237096667,-0.0010921228677034378,-0.0006831055507063865,1.2184696791468346e-07,0.0,0.0,0.0,1.2184696791468346e-07,0.0,0.0,0.0,1.2184696791468346e-07,-0.20820261538028717,-0.15729713439941287,9.780485153198242,8.999999999999999e-08,0.0,0.0,0.0,8.999999999999999e-08,0.0,0.0,0.0,8.999999999999999e-08
30605000000,5702,30605000000,base_link,0.00590019725059034,-0.011924595336841539,0.029805576917328214,-0.9994671624268543,1.0,0.0,0.0,0.0,1.0,0.0,0.0,0.0,1.0,-0.0005396947963163257,-0.001738840714097023,-0.00010138232028111794,1.2184696791468346e-07,0.0,0.0,0.0,1.2184696791468346e-07,0.0,0.0,0.0,1.2184696791468346e-07,-0.2251402884721756,-0.14251944422721743,9.804839134216309,8.999999999999999e-08,0.0,0.0,0.0,8.999999999999999e-08,0.0,0.0,0.0,8.999999999999999e-08
30611000000,5703,30611000000,base_link,0.00590384690425358,-0.011936470211409481,0.029799381330597063,-0.9994672045737027,1.0,0.0,0.0,0.0,1.0,0.0,0.0,0.0,1.0,-0.0014183809980750084,0.0026749540120363235,0.0005271712434478101,1.2184696791468346e-07,0.0,0.0,0.0,1.2184696791468346e-07,0.0,0.0,0.0,1.2184696791468346e-07,-0.16514340043067932,-0.15860924124717593,9.830071449279785,8.999999999999999e-08,0.0,0.0,0.0,8.999999999999999e-08,0.0,0.0,0.0,8.999999999999999e-08
30616000000,5704,30616000000,base_link,0.005913475812777049,-0.011947935800565714,0.029805492623631136,-0.9994668252520661,1.0,0.0,0.0,0.0,1.0,0.0,0.0,0.0,1.0,-0.0019938359037041664,0.004119499586522579,0.0005573734524659807,1.2184696791468346e-07,0.0,0.0,0.0,1.2184696791468346e-07,0.0,0.0,0.0,1.2184696791468346e-07,-0.2420036941766739,-0.20771710574626803,9.820125579833984,8.999999999999999e-08,0.0,0.0,0.0,8.999999999999999e-08,0.0,0.0,0.0,8.999999999999999e-08
30621000000,5705,30620000000,base_link,0.005912401397412277,-0.011953455391359372,0.02979904415580903,-0.9994669516926117,1.0,0.0,0.0,0.0,1.0,0.0,0.0,0.0,1.0,0.00048790033906698227,0.0013862322084605696,0.0009499154402874408,1.2184696791468346e-07,0.0,0.0,0.0,1.2184696791468346e-07,0.0,0.0,0.0,1.2184696791468346e-07,-0.22427497804164886,-0.12336578965186952,9.818097114562988,8.999999999999999e-08,0.0,0.0,0.0,8.999999999999999e-08,0.0,0.0,0.0,8.999999999999999e-08
30625000000,5706,30625000000,base_link,0.005916261126773564,-0.011936540675671835,0.02979086766719785,-0.9994673731610968,1.0,0.0,0.0,0.0,1.0,0.0,0.0,0.0,1.0,0.0010777339339256287,-0.0028483676724135876,0.001340362243354321,1.2184696791468346e-07,0.0,0.0,0.0,1.2184696791468346e-07,0.0,0.0,0.0,1.2184696791468346e-07,-0.18335923552513123,-0.15028558671474337,9.78844165802002,8.999999999999999e-08,0.0,0.0,0.0,8.999999999999999e-08,0.0,0.0,0.0,8.999999999999999e-08
30630000000,5707,30630000000,base_link,0.0059219045239347215,-0.011940543638463608,0.029786442248104172,-0.9994674153079453,1.0,0.0,0.0,0.0,1.0,0.0,0.0,0.0,1.0,-0.0008240845054388046,-0.001662021270021796,0.002047658199444413,1.2184696791468346e-07,0.0,0.0,0.0,1.2184696791468346e-07,0.0,0.0,0.0,1.2184696791468346e-07,-0.2260889858007431,-0.18383777141570926,9.791219711303711,8.999999999999999e-08,0.0,0.0,0.0,8.999999999999999e-08,0.0,0.0,0.0,8.999999999999999e-08
30636000000,5708,30636000000,base_link,0.005931162342627941,-0.011939916704092009,0.029778518640584173,-0.9994676681890363,1.0,0.0,0.0,0.0,1.0,0.0,0.0,0.0,1.0,-0.0019592787139117718,-0.0003471979871392248,0.0017740305047482252,1.2184696791468346e-07,0.0,0.0,0.0,1.2184696791468346e-07,0.0,0.0,0.0,1.2184696791468346e-07,-0.19758661091327667,-0.21522609889507174,9.77499008178711,8.999999999999999e-08,0.0,0.0,0.0,8.999999999999999e-08,0.0,0.0,0.0,8.999999999999999e-08
30641000000,5709,30641000000,base_link,0.005934705312080889,-0.011933117890591597,0.029770890061003696,-0.9994678789232789,1.0,0.0,0.0,0.0,1.0,0.0,0.0,0.0,1.0,-0.0006257058121263981,-0.0014742598868906496,0.002203593961894512,1.2184696791468346e-07,0.0,0.0,0.0,1.2184696791468346e-07,0.0,0.0,0.0,1.2184696791468346e-07,-0.19878146052360535,-0.13473120331764102,9.805514335632324,8.999999999999999e-08,0.0,0.0,0.0,8.999999999999999e-08,0.0,0.0,0.0,8.999999999999999e-08
30645000000,5710,30645000000,base_link,0.005941473832533936,-0.011928018121921777,0.029764188712090467,-0.9994680896575214,1.0,0.0,0.0,0.0,1.0,0.0,0.0,0.0,1.0,-0.0004951872397214174,-0.002376149175688624,0.0027301446534693245,1.2184696791468346e-07,0.0,0.0,0.0,1.2184696791468346e-07,0.0,0.0,0.0,1.2184696791468346e-07,-0.18085263669490814,-0.14040113985538363,9.787568092346191,8.999999999999999e-08,0.0,0.0,0.0,8.999999999999999e-08,0.0,0.0,0.0,8.999999999999999e-08
30650000000,5711,30650000000,base_link,0.005943354306376479,-0.011922574922291046,0.029771353676337375,-0.9994680053638245,1.0,0.0,0.0,0.0,1.0,0.0,0.0,0.0,1.0,-0.0005420730449259281,-0.00300564244389534,-0.0002437850052956488,1.2184696791468346e-07,0.0,0.0,0.0,1.2184696791468346e-07,0.0,0.0,0.0,1.2184696791468346e-07,-0.24725943803787231,-0.11884997785091281,9.734890937805176,8.999999999999999e-08,0.0,0.0,0.0,8.999999999999999e-08,0.0,0.0,0.0,8.999999999999999e-08
30656000000,5712,30656000000,base_link,0.005946464612087682,-0.011916553849854562,0.029768487690638556,-0.9994680896575215,1.0,0.0,0.0,0.0,1.0,0.0,0.0,0.0,1.0,0.0003726037684828043,-0.0033010849729180336,-0.0008933208882808681,1.2184696791468346e-07,0.0,0.0,0.0,1.2184696791468346e-07,0.0,0.0,0.0,1.2184696791468346e-07,-0.3215235769748688,-0.1233227699995029,9.792675018310547,8.999999999999999e-08,0.0,0.0,0.0,8.999999999999999e-08,0.0,0.0,0.0,8.999999999999999e-08
30661000000,5713,30661000000,base_link,0.005942404355923715,-0.011908498204160662,0.029773334578217348,-0.999468047510673,1.0,0.0,0.0,0.0,1.0,0.0,0.0,0.0,1.0,0.0015663064550608397,-0.0022030500695109367,-0.0010645850561559198,1.2184696791468346e-07,0.0,0.0,0.0,1.2184696791468346e-07,0.0,0.0,0.0,1.2184696791468346e-07,-0.25898104906082153,-0.12925489246845126,9.834887504577637,8.999999999999999e-08,0.0,0.0,0.0,8.999999999999999e-08,0.0,0.0,0.0,8.999999999999999e-08
30666000000,5714,30666000000,base_link,0.005945682590484453,-0.011908773475765,0.029773629606156926,-0.9994680896575214,1.0,0.0,0.0,0.0,1.0,0.0,0.0,0.0,1.0,0.0013226063456386328,-0.0011887205764651299,-0.0005335237365216016,1.2184696791468346e-07,0.0,0.0,0.0,1.2184696791468346e-07,0.0,0.0,0.0,1.2184696791468346e-07,-0.19315122067928314,-0.1852860450744617,9.765181541442871,8.999999999999999e-08,0.0,0.0,0.0,8.999999999999999e-08,0.0,0.0,0.0,8.999999999999999e-08
30671000000,5715,30670000000,base_link,0.005950243669746742,-0.011913285822733696,0.029765705998636816,-0.9994681739512186,1.0,0.0,0.0,0.0,1.0,0.0,0.0,0.0,1.0,-6.075948476791382e-05,0.00041334656998515145,0.001348396996036172,1.2184696791468346e-07,0.0,0.0,0.0,1.2184696791468346e-07,0.0,0.0,0.0,1.2184696791468346e-07,-0.2266722321510315,-0.19945438206195712,9.791690826416016,8.999999999999999e-08,0.0,0.0,0.0,8.999999999999999e-08,0.0,0.0,0.0,8.999999999999999e-08
30675000000,5716,30675000000,base_link,0.005957670734707771,-0.011915934488744803,0.029763640803059765,-0.999468216098067,1.0,0.0,0.0,0.0,1.0,0.0,0.0,0.0,1.0,-0.0016562992241233587,0.0012526777572929861,0.0014513554051518438,1.2184696791468346e-07,0.0,0.0,0.0,1.2184696791468346e-07,0.0,0.0,0.0,1.2184696791468346e-07,-0.22471290826797485,-0.1112908050417888,9.830470085144043,8.999999999999999e-08,0.0,0.0,0.0,8.999999999999999e-08,0.0,0.0,0.0,8.999999999999999e-08
30680000000,5717,30680000000,base_link,0.005954803431920013,-0.01191526277334666,0.02976760260681982,-0.9994681318043701,1.0,0.0,0.0,0.0,1.0,0.0,0.0,0.0,1.0,0.0005592970410361886,0.001252484507858753,-0.0011681325268000366,1.2184696791468346e-07,0.0,0.0,0.0,1.2184696791468346e-07,0.0,0.0,0.0,1.2184696791468346e-07,-0.28681933879852295,-0.17145036160945773,9.779684066772461,8.999999999999999e-08,0.0,0.0,0.0,8.999999999999999e-08,0.0,0.0,0.0,8.999999999999999e-08
30686000000,5718,30686000000,base_link,0.005961357925407965,-0.011924372419525585,0.029767434019425776,-0.9994679632169761,1.0,0.0,0.0,0.0,1.0,0.0,0.0,0.0,1.0,-0.00028883805498480797,0.001496606506407261,-0.00023865516413934548,1.2184696791468346e-07,0.0,0.0,0.0,1.2184696791468346e-07,0.0,0.0,0.0,1.2184696791468346e-07,-0.22688278555870056,-0.1531551629304874,9.80216121673584,8.999999999999999e-08,0.0,0.0,0.0,8.999999999999999e-08,0.0,0.0,0.0,8.999999999999999e-08
30691000000,5719,30691000000,base_link,0.005968091543002089,-0.01191608858815967,0.029762376397604484,-0.999468216098067,1.0,0.0,0.0,0.0,1.0,0.0,0.0,0.0,1.0,-0.0014677252620458603,-0.0017741548363119364,0.0008073479984886946,1.2184696791468346e-07,0.0,0.0,0.0,1.2184696791468346e-07,0.0,0.0,0.0,1.2184696791468346e-07,-0.22960498929023743,-0.1589457541704166,9.77404499053955,8.999999999999999e-08,0.0,0.0,0.0,8.999999999999999e-08,0.0,0.0,0.0,8.999999999999999e-08
30696000000,5720,30696000000,base_link,0.005969538365286127,-0.011917298334420835,0.029761617754331338,-0.999468216098067,1.0,0.0,0.0,0.0,1.0,0.0,0.0,0.0,1.0,0.000670025241561234,0.00038181804120540646,0.0021192135754972696,1.2184696791468346e-07,0.0,0.0,0.0,1.2184696791468346e-07,0.0,0.0,0.0,1.2184696791468346e-07,-0.24454179406166077,-0.12673890590667605,9.813535690307617,8.999999999999999e-08,0.0,0.0,0.0,8.999999999999999e-08,0.0,0.0,0.0,8.999999999999999e-08
30700000000,5721,30700000000,base_link,0.005965207118057124,-0.011926592373061996,0.029755464314448754,-0.999468300391764,1.0,0.0,0.0,0.0,1.0,0.0,0.0,0.0,1.0,0.0017025568522512913,0.0028364728204905987,0.0012047844938933845,1.2184696791468346e-07,0.0,0.0,0.0,1.2184696791468346e-07,0.0,0.0,0.0,1.2184696791468346e-07,-0.239006906747818,-0.207701191306113,9.759119033813477,8.999999999999999e-08,0.0,0.0,0.0,8.999999999999999e-08,0.0,0.0,0.0,8.999999999999999e-08
30705000000,5722,30705000000,base_link,0.005953174192807264,-0.011940786641387055,0.02975913109026912,-0.9994680896575214,1.0,0.0,0.0,0.0,1.0,0.0,0.0,0.0,1.0,0.003737359307706356,0.0036084712482988834,-0.0003803399449680005,1.2184696791468346e-07,0.0,0.0,0.0,1.2184696791468346e-07,0.0,0.0,0.0,1.2184696791468346e-07,-0.17711055278778076,-0.11071481555700183,9.763326644897461,8.999999999999999e-08,0.0,0.0,0.0,8.999999999999999e-08,0.0,0.0,0.0,8.999999999999999e-08
30710000000,5723,30710000000,base_link,0.00594668720013138,-0.01194951268539008,0.02975529572705471,-0.99946813180437,1.0,0.0,0.0,0.0,1.0,0.0,0.0,0.0,1.0,0.004767508711665869,0.003580522257834673,0.00032046181149780707,1.2184696791468346e-07,0.0,0.0,0.0,1.2184696791468346e-07,0.0,0.0,0.0,1.2184696791468346e-07,-0.1905670464038849,-0.12783850729465365,9.802912712097168,8.999999999999999e-08,0.0,0.0,0.0,8.999999999999999e-08,0.0,0.0,0.0,8.999999999999999e-08
30716000000,5724,30716000000,base_link,0.005947660199641924,-0.011949287792440604,0.029760732670512546,-0.9994680053638244,1.0,0.0,0.0,0.0,1.0,0.0,0.0,0.0,1.0,0.0020253495313227177,0.0008206521160900592,-0.0009872640948742628,1.2184696791468346e-07,0.0,0.0,0.0,1.2184696791468346e-07,0.0,0.0,0.0,1.2184696791468346e-07,-0.18926821649074554,-0.1511688679456699,9.795230865478516,8.999999999999999e-08,0.0,0.0,0.0,8.999999999999999e-08,0.0,0.0,0.0,8.999999999999999e-08
30721000000,5725,30721000000,base_link,0.005952027337546612,-0.011950751407609594,0.02975373629365974,-0.9994680896575215,1.0,0.0,0.0,0.0,1.0,0.0,0.0,0.0,1.0,0.0001404245849698782,-2.8956215828657086e-05,0.0005261197802610695,1.2184696791468346e-07,0.0,0.0,0.0,1.2184696791468346e-07,0.0,0.0,0.0,1.2184696791468346e-07,-0.21148577332496643,-0.16068682074546695,9.777655601501465,8.999999999999999e-08,0.0,0.0,0.0,8.999999999999999e-08,0.0,0.0,0.0,8.999999999999999e-08
30725000000,5726,30725000000,base_link,0.005958088251925831,-0.01194817946203367,0.029748720818686902,-0.999468216098067,1.0,0.0,0.0,0.0,1.0,0.0,0.0,0.0,1.0,-0.0009522236650809646,-0.0008165859617292879,0.0019742916338145733,1.2184696791468346e-07,0.0,0.0,0.0,1.2184696791468346e-07,0.0,0.0,0.0,1.2184696791468346e-07,-0.20967620611190796,-0.13757914304733157,9.796041488647461,8.999999999999999e-08,0.0,0.0,0.0,8.999999999999999e-08,0.0,0.0,0.0,8.999999999999999e-08
30730000000,5727,30730000000,base_link,0.005955618710020896,-0.011954431683592457,0.029743705343714233,-0.9994683425386126,1.0,0.0,0.0,0.0,1.0,0.0,0.0,0.0,1.0,0.0002860613167285919,0.0008113486692309383,0.0024621274787932634,1.2184696791468346e-07,0.0,0.0,0.0,1.2184696791468346e-07,0.0,0.0,0.0,1.2184696791468346e-07,-0.23625978827476501,-0.16157867014407992,9.817792892456055,8.999999999999999e-08,0.0,0.0,0.0,8.999999999999999e-08,0.0,0.0,0.0,8.999999999999999e-08
30735000000,5728,30735000000,base_link,0.005948961812861952,-0.011964639452738443,0.02974083935801547,-0.9994683425386126,1.0,0.0,0.0,0.0,1.0,0.0,0.0,0.0,1.0,0.0024575223214924335,0.0029029962606728077,0.0011009422596544023,1.2184696791468346e-07,0.0,0.0,0.0,1.2184696791468346e-07,0.0,0.0,0.0,1.2184696791468346e-07,-0.24892450869083405,-0.15037193894386172,9.75732707977295,8.999999999999999e-08,0.0,0.0,0.0,8.999999999999999e-08,0.0,0.0,0.0,8.999999999999999e-08
30741000000,5729,30741000000,base_link,0.005945190328464735,-0.011968921967673855,0.029744885455472436,-0.9994682582449155,1.0,0.0,0.0,0.0,1.0,0.0,0.0,0.0,1.0,0.002795625478029251,0.0018453882075846195,-0.000511143356561661,1.2184696791468346e-07,0.0,0.0,0.0,1.2184696791468346e-07,0.0,0.0,0.0,1.2184696791468346e-07,-0.21349018812179565,-0.16335570812225222,9.844970703125,8.999999999999999e-08,0.0,0.0,0.0,8.999999999999999e-08,0.0,0.0,0.0,8.999999999999999e-08
30746000000,5730,30746000000,base_link,0.005951420159510252,-0.011966847552473708,0.02975213471341631,-0.9994680053638245,1.0,0.0,0.0,0.0,1.0,0.0,0.0,0.0,1.0,0.0006928534712642431,-0.0004725218750536445,-0.0025262534618377686,1.2184696791468346e-07,0.0,0.0,0.0,1.2184696791468346e-07,0.0,0.0,0.0,1.2184696791468346e-07,-0.1969502568244934,-0.15465058386325717,9.813992500305176,8.999999999999999e-08,0.0,0.0,0.0,8.999999999999999e-08,0.0,0.0,0.0,8.999999999999999e-08
30751000000,5731,30751000000,base_link,0.005944594345685012,-0.011966845576840185,0.02975356770626575,-0.9994680053638245,1.0,0.0,0.0,0.0,1.0,0.0,0.0,0.0,1.0,0.001778904814273119,-0.0006766556762158873,-0.0016202747356146574,1.2184696791468346e-07,0.0,0.0,0.0,1.2184696791468346e-07,0.0,0.0,0.0,1.2184696791468346e-07,-0.2235347032546997,-0.16285592317581057,9.78824234008789,8.999999999999999e-08,0.0,0.0,0.0,8.999999999999999e-08,0.0,0.0,0.0,8.999999999999999e-08
30756000000,5732,30755000000,base_link,0.0059425630651501376,-0.011972538364839441,0.02974796217541381,-0.99946813180437,1.0,0.0,0.0,0.0,1.0,0.0,0.0,0.0,1.0,0.0025873850099742413,0.00036479439586400997,0.000958152289967984,1.2184696791468346e-07,0.0,0.0,0.0,1.2184696791468346e-07,0.0,0.0,0.0,1.2184696791468346e-07,-0.19389984011650085,-0.14204816520213961,9.827187538146973,8.999999999999999e-08,0.0,0.0,0.0,8.999999999999999e-08,0.0,0.0,0.0,8.999999999999999e-08
30760000000,5733,30760000000,base_link,0.00593784426447819,-0.011967052359815692,0.029749732343051227,-0.9994681318043699,1.0,0.0,0.0,0.0,1.0,0.0,0.0,0.0,1.0,0.0018967846408486366,-0.0014382568188011646,6.142095662653464e-05,1.2184696791468346e-07,0.0,0.0,0.0,1.2184696791468346e-07,0.0,0.0,0.0,1.2184696791468346e-07,-0.23332110047340393,-0.13847531378269076,9.799219131469727,8.999999999999999e-08,0.0,0.0,0.0,8.999999999999999e-08,0.0,0.0,0.0,8.999999999999999e-08
30765000000,5734,30765000000,base_link,0.00594688772693406,-0.011974618706940159,0.029749057993475048,-0.9994679632169758,1.0,0.0,0.0,0.0,1.0,0.0,0.0,0.0,1.0,-0.0003254014300182462,0.0001312051899731159,-0.0001740403531584889,1.2184696791468346e-07,0.0,0.0,0.0,1.2184696791468346e-07,0.0,0.0,0.0,1.2184696791468346e-07,-0.22853496670722961,-0.1352328509092319,9.805641174316406,8.999999999999999e-08,0.0,0.0,0.0,8.999999999999999e-08,0.0,0.0,0.0,8.999999999999999e-08
30770000000,5735,30770000000,base_link,0.005943767872327493,-0.011978786964403436,0.029750448839475918,-0.9994679210701274,1.0,0.0,0.0,0.0,1.0,0.0,0.0,0.0,1.0,0.0011079959804192185,0.0018207929097115993,0.00012460554717108586,1.2184696791468346e-07,0.0,0.0,0.0,1.2184696791468346e-07,0.0,0.0,0.0,1.2184696791468346e-07,-0.20150679349899292,-0.1494094580411899,9.825787544250488,8.999999999999999e-08,0.0,0.0,0.0,8.999999999999999e-08,0.0,0.0,0.0,8.999999999999999e-08
30776000000,5736,30776000000,base_link,0.005941138304107118,-0.011983207773685525,0.029748805112383925,-0.999467963216976,1.0,0.0,0.0,0.0,1.0,0.0,0.0,0.0,1.0,0.0015420711133629084,0.00035759806632995605,-5.432160105556254e-05,1.2184696791468346e-07,0.0,0.0,0.0,1.2184696791468346e-07,0.0,0.0,0.0,1.2184696791468346e-07,-0.19624468684196472,-0.13122564554214358,9.758447647094727,8.999999999999999e-08,0.0,0.0,0.0,8.999999999999999e-08,0.0,0.0,0.0,8.999999999999999e-08
30781000000,5737,30781000000,base_link,0.0059462018528289974,-0.011977377679156352,0.02975011166468783,-0.9994679210701274,1.0,0.0,0.0,0.0,1.0,0.0,0.0,0.0,1.0,0.0006459914147853851,-0.001485498622059822,-0.0003580260090529917,1.2184696791468346e-07,0.0,0.0,0.0,1.2184696791468346e-07,0.0,0.0,0.0,1.2184696791468346e-07,-0.21217486262321472,-0.17506706714630008,9.817085266113281,8.999999999999999e-08,0.0,0.0,0.0,8.999999999999999e-08,0.0,0.0,0.0,8.999999999999999e-08
30786000000,5738,30785000000,base_link,0.005949081667962405,-0.0119874790933643,0.02974505404286648,-0.9994679210701274,1.0,0.0,0.0,0.0,1.0,0.0,0.0,0.0,1.0,-0.00037950847763568163,-0.00015381723642349238,0.0004205508157610893,1.2184696791468346e-07,0.0,0.0,0.0,1.2184696791468346e-07,0.0,0.0,0.0,1.2184696791468346e-07,-0.23832568526268005,-0.16465529799461245,9.802550315856934,8.999999999999999e-08,0.0,0.0,0.0,8.999999999999999e-08,0.0,0.0,0.0,8.999999999999999e-08
30790000000,5739,30790000000,base_link,0.005948273633851111,-0.011994116563460258,0.029736793260558392,-0.9994681739512185,1.0,0.0,0.0,0.0,1.0,0.0,0.0,0.0,1.0,0.0002922358689829707,0.002501856535673142,0.0023436523042619224,1.2184696791468346e-07,0.0,0.0,0.0,1.2184696791468346e-07,0.0,0.0,0.0,1.2184696791468346e-07,-0.23760198056697845,-0.1633904129266727,9.830718040466309,8.999999999999999e-08,0.0,0.0,0.0,8.999999999999999e-08,0.0,0.0,0.0,8.999999999999999e-08
30795000000,5740,30795000000,base_link,0.005956377024021838,-0.012000780375336534,0.02972587722679404,-0.9994683003917642,1.0,0.0,0.0,0.0,1.0,0.0,0.0,0.0,1.0,-0.001233537564985454,0.0023310557007789616,0.0037364424206316467,1.2184696791468346e-07,0.0,0.0,0.0,1.2184696791468346e-07,0.0,0.0,0.0,1.2184696791468346e-07,-0.17941118776798248,-0.15738582611083865,9.817840576171875,8.999999999999999e-08,0.0,0.0,0.0,8.999999999999999e-08,0.0,0.0,0.0,8.999999999999999e-08
30800000000,5741,30800000000,base_link,0.00596404017718898,-0.01201237569776084,0.02972195756988255,-0.9994682582449155,1.0,0.0,0.0,0.0,1.0,0.0,0.0,0.0,1.0,-0.001366889220662415,0.003426921553909779,0.0022126575931906696,1.2184696791468346e-07,0.0,0.0,0.0,1.2184696791468346e-07,0.0,0.0,0.0,1.2184696791468346e-07,-0.21014006435871124,-0.19982635974883914,9.788844108581543,8.999999999999999e-08,0.0,0.0,0.0,8.999999999999999e-08,0.0,0.0,0.0,8.999999999999999e-08
30806000000,5742,30806000000,base_link,0.005955046434843459,-0.012016184060650505,0.029711463004603367,-0.9994685532728551,1.0,0.0,0.0,0.0,1.0,0.0,0.0,0.0,1.0,0.001831162255257368,0.001327158883213997,0.0019359755096957085,1.2184696791468346e-07,0.0,0.0,0.0,1.2184696791468346e-07,0.0,0.0,0.0,1.2184696791468346e-07,-0.24229906499385834,-0.17494842410087466,9.786798477172852,8.999999999999999e-08,0.0,0.0,0.0,8.999999999999999e-08,0.0,0.0,0.0,8.999999999999999e-08
30811000000,5743,30811000000,base_link,0.00595561245384807,-0.012017792555611253,0.029705983914296852,-0.9994687218602492,1.0,0.0,0.0,0.0,1.0,0.0,0.0,0.0,1.0,0.001668455428443849,8.955597877502471e-05,0.0023946668952703476,1.2184696791468346e-07,0.0,0.0,0.0,1.2184696791468346e-07,0.0,0.0,0.0,1.2184696791468346e-07,-0.2547709345817566,-0.1560121476650226,9.790508270263672,8.999999999999999e-08,0.0,0.0,0.0,8.999999999999999e-08,0.0,0.0,0.0,8.999999999999999e-08
30815000000,5744,30815000000,base_link,0.0059560843009880396,-0.012014436283526319,0.029701347760960728,-0.9994688904476432,1.0,0.0,0.0,0.0,1.0,0.0,0.0,0.0,1.0,0.0013915726449340582,-0.0011961399577558038,0.0014671542448922994,1.2184696791468346e-07,0.0,0.0,0.0,1.2184696791468346e-07,0.0,0.0,0.0,1.2184696791468346e-07,-0.23067879676818848,-0.2119627296924579,9.811595916748047,8.999999999999999e-08,0.0,0.0,0.0,8.999999999999999e-08,0.0,0.0,0.0,8.999999999999999e-08
30820000000,5745,30820000000,base_link,0.0059474642826508,-0.012024349683277237,0.02970223284477952,-0.9994687640070976,1.0,0.0,0.0,0.0,1.0,0.0,0.0,0.0,1.0,0.002364844549447298,0.0015541831962764263,-0.00045270903501659653,1.2184696791468346e-07,0.0,0.0,0.0,1.2184696791468346e-07,0.0,0.0,0.0,1.2184696791468346e-07,-0.2300969362258911,-0.18522590398788333,9.809219360351562,8.999999999999999e-08,0.0,0.0,0.0,8.999999999999999e-08,0.0,0.0,0.0,8.999999999999999e-08
30825000000,5746,30825000000,base_link,0.00595226474284174,-0.012028360548603106,0.029696121551745336,-0.9994688904476432,1.0,0.0,0.0,0.0,1.0,0.0,0.0,0.0,1.0,0.00038906128611415625,0.0011432729661464691,0.00023770285770297037,1.2184696791468346e-07,0.0,0.0,0.0,1.2184696791468346e-07,0.0,0.0,0.0,1.2184696791468346e-07,-0.20141011476516724,-0.186185836791991,9.783329010009766,8.999999999999999e-08,0.0,0.0,0.0,8.999999999999999e-08,0.0,0.0,0.0,8.999999999999999e-08
30830000000,5747,30830000000,base_link,0.005949563393269995,-0.012027923275049804,0.029694098503016852,-0.9994689747413401,1.0,0.0,0.0,0.0,1.0,0.0,0.0,0.0,1.0,0.0008730912813916802,0.00037097278982400905,0.0007254153024405241,1.2184696791468346e-07,0.0,0.0,0.0,1.2184696791468346e-07,0.0,0.0,0.0,1.2184696791468346e-07,-0.21868064999580383,-0.2387291043996799,9.828391075134277,8.999999999999999e-08,0.0,0.0,0.0,8.999999999999999e-08,0.0,0.0,0.0,8.999999999999999e-08
30836000000,5748,30836000000,base_link,0.005951973007624704,-0.01202984161520156,0.02969814460047393,-0.9994688061539462,1.0,0.0,0.0,0.0,1.0,0.0,0.0,0.0,1.0,-0.00040412694215774536,5.94411976635455e-05,-0.0009112789994105697,1.2184696791468346e-07,0.0,0.0,0.0,1.2184696791468346e-07,0.0,0.0,0.0,1.2184696791468346e-07,-0.26924896240234375,-0.13935749232768893,9.78255558013916,8.999999999999999e-08,0.0,0.0,0.0,8.999999999999999e-08,0.0,0.0,0.0,8.999999999999999e-08
30841000000,5749,30841000000,base_link,0.005950593686152733,-0.012025736578011047,0.029697680985140307,-0.9994689325944917,1.0,0.0,0.0,0.0,1.0,0.0,0.0,0.0,1.0,0.0007597804069519043,-0.0009450679644942285,-0.0008594966493546962,1.2184696791468346e-07,0.0,0.0,0.0,1.2184696791468346e-07,0.0,0.0,0.0,1.2184696791468346e-07,-0.2296159565448761,-0.15800654888152957,9.849812507629395,8.999999999999999e-08,0.0,0.0,0.0,8.999999999999999e-08,0.0,0.0,0.0,8.999999999999999e-08
30845000000,5750,30845000000,base_link,0.0059506058692261315,-0.012033072434557722,0.02969536290847219,-0.9994688904476432,1.0,0.0,0.0,0.0,1.0,0.0,0.0,0.0,1.0,0.0009840517304837704,0.000583633780479431,-0.0007334306137636305,1.2184696791468346e-07,0.0,0.0,0.0,1.2184696791468346e-07,0.0,0.0,0.0,1.2184696791468346e-07,-0.2485329955816269,-0.15046077966689944,9.810042381286621,8.999999999999999e-08,0.0,0.0,0.0,8.999999999999999e-08,0.0,0.0,0.0,8.999999999999999e-08
30850000000,5751,30850000000,base_link,0.005944265731975528,-0.012040902199485382,0.029692496922773426,-0.9994688904476432,1.0,0.0,0.0,0.0,1.0,0.0,0.0,0.0,1.0,0.0017756244633346796,0.002758634276688099,0.0006542417686432597,1.2184696791468346e-07,0.0,0.0,0.0,1.2184696791468346e-07,0.0,0.0,0.0,1.2184696791468346e-07,-0.2202719748020172,-0.15720999240875122,9.861735343933105,8.999999999999999e-08,0.0,0.0,0.0,8.999999999999999e-08,0.0,0.0,0.0,8.999999999999999e-08
30855000000,5752,30855000000,base_link,0.005942864678534794,-0.012049455046282808,0.029690811048833032,-0.9994688061539462,1.0,0.0,0.0,0.0,1.0,0.0,0.0,0.0,1.0,0.0012563506606966257,0.0033708205446600914,0.000628580572083592,1.2184696791468346e-07,0.0,0.0,0.0,1.2184696791468346e-07,0.0,0.0,0.0,1.2184696791468346e-07,-0.20981240272521973,-0.14724086225032687,9.822813034057617,8.999999999999999e-08,0.0,0.0,0.0,8.999999999999999e-08,0.0,0.0,0.0,8.999999999999999e-08
30861000000,5753,30861000000,base_link,0.0059484698801144905,-0.012059477105877544,0.02970362369078028,-0.9994683003917639,1.0,0.0,0.0,0.0,1.0,0.0,0.0,0.0,1.0,-0.0006710517918691039,0.0029477318748831745,-0.002825309988111258,1.2184696791468346e-07,0.0,0.0,0.0,1.2184696791468346e-07,0.0,0.0,0.0,1.2184696791468346e-07,-0.20591206848621368,-0.11804533004760623,9.787426948547363,8.999999999999999e-08,0.0,0.0,0.0,8.999999999999999e-08,0.0,0.0,0.0,8.999999999999999e-08
30866000000,5754,30866000000,base_link,0.005954219632213687,-0.012063368445375212,0.029700589117687526,-0.9994683003917639,1.0,0.0,0.0,0.0,1.0,0.0,0.0,0.0,1.0,-0.001596461865119636,0.002590222749859094,-0.001968166092410684,1.2184696791468346e-07,0.0,0.0,0.0,1.2184696791468346e-07,0.0,0.0,0.0,1.2184696791468346e-07,-0.269957572221756,-0.1856185942888248,9.804277420043945,8.999999999999999e-08,0.0,0.0,0.0,8.999999999999999e-08,0.0,0.0,0.0,8.999999999999999e-08
30870000000,5755,30870000000,base_link,0.0059578841031283575,-0.012056891989411457,0.02970138990780924,-0.9994683425386125,1.0,0.0,0.0,0.0,1.0,0.0,0.0,0.0,1.0,-0.0015821541892364621,-0.00016971072182059302,-0.001159314881078899,1.2184696791468346e-07,0.0,0.0,0.0,1.2184696791468346e-07,0.0,0.0,0.0,1.2184696791468346e-07,-0.2204056978225708,-0.1883254349231708,9.841460227966309,8.999999999999999e-08,0.0,0.0,0.0,8.999999999999999e-08,0.0,0.0,0.0,8.999999999999999e-08
30875000000,5756,30875000000,base_link,0.005952799480982223,-0.012053106017035064,0.029691148223621067,-0.9994687218602492,1.0,0.0,0.0,0.0,1.0,0.0,0.0,0.0,1.0,0.001158878207206726,-0.001620537135750055,0.0017595420358702543,1.2184696791468346e-07,0.0,0.0,0.0,1.2184696791468346e-07,0.0,0.0,0.0,1.2184696791468346e-07,-0.24158860743045807,-0.1691962480545032,9.801156997680664,8.999999999999999e-08,0.0,0.0,0.0,8.999999999999999e-08,0.0,0.0,0.0,8.999999999999999e-08
30880000000,5757,30880000000,base_link,0.005946007582199142,-0.01205398023486941,0.029694646412047443,-0.9994686797134007,1.0,0.0,0.0,0.0,1.0,0.0,0.0,0.0,1.0,0.0029061627574265003,9.686313569545744e-05,-8.290444384329022e-05,1.2184696791468346e-07,0.0,0.0,0.0,1.2184696791468346e-07,0.0,0.0,0.0,1.2184696791468346e-07,-0.20655542612075806,-0.1738838553428638,9.745294570922852,8.999999999999999e-08,0.0,0.0,0.0,8.999999999999999e-08,0.0,0.0,0.0,8.999999999999999e-08
30886000000,5758,30886000000,base_link,0.005951441232934508,-0.012054572266382088,0.029693550593986207,-0.9994686797134006,1.0,0.0,0.0,0.0,1.0,0.0,0.0,0.0,1.0,-0.0004941873485222459,-0.0003256588242948056,-0.00034108135150745506,1.2184696791468346e-07,0.0,0.0,0.0,1.2184696791468346e-07,0.0,0.0,0.0,1.2184696791468346e-07,-0.20672568678855896,-0.11202894151210666,9.790103912353516,8.999999999999999e-08,0.0,0.0,0.0,8.999999999999999e-08,0.0,0.0,0.0,8.999999999999999e-08
30891000000,5759,30891000000,base_link,0.005954533428671739,-0.012049892978380616,0.02969435138410792,-0.9994687218602492,1.0,0.0,0.0,0.0,1.0,0.0,0.0,0.0,1.0,-0.001644047792069614,-0.0012596147134900093,-0.0003344344149809329,1.2184696791468346e-07,0.0,0.0,0.0,1.2184696791468346e-07,0.0,0.0,0.0,1.2184696791468346e-07,-0.21798992156982422,-0.1761833429336536,9.765486717224121,8.999999999999999e-08,0.0,0.0,0.0,8.999999999999999e-08,0.0,0.0,0.0,8.999999999999999e-08
30895000000,5760,30895000000,base_link,0.005955576563172385,-0.012039937102508934,0.02969211760113677,-0.9994688483007947,1.0,0.0,0.0,0.0,1.0,0.0,0.0,0.0,1.0,-0.0008721622871235013,-0.0027222218923270702,-0.0003589381230995056,1.2184696791468346e-07,0.0,0.0,0.0,1.2184696791468346e-07,0.0,0.0,0.0,1.2184696791468346e-07,-0.25928452610969543,-0.13568703830242038,9.826678276062012,8.999999999999999e-08,0.0,0.0,0.0,8.999999999999999e-08,0.0,0.0,0.0,8.999999999999999e-08
30900000000,5761,30900000000,base_link,0.005952713211651676,-0.012046301276634077,0.029689125174892528,-0.9994688904476432,1.0,0.0,0.0,0.0,1.0,0.0,0.0,0.0,1.0,0.0015907103661447763,-0.0005537853576242924,5.2387418691068955e-05,1.2184696791468346e-07,0.0,0.0,0.0,1.2184696791468346e-07,0.0,0.0,0.0,1.2184696791468346e-07,-0.21268275380134583,-0.14842109382152438,9.803032875061035,8.999999999999999e-08,0.0,0.0,0.0,8.999999999999999e-08,0.0,0.0,0.0,8.999999999999999e-08
30905000000,5762,30905000000,base_link,0.005942634517229254,-0.012058767853442445,0.02969696448871556,-0.9994685532728551,1.0,0.0,0.0,0.0,1.0,0.0,0.0,0.0,1.0,0.002385887084528804,0.0033891303464770317,-0.0015011901268735532,1.2184696791468346e-07,0.0,0.0,0.0,1.2184696791468346e-07,0.0,0.0,0.0,1.2184696791468346e-07,-0.21861743927001953,-0.1883426457643497,9.803054809570312,8.999999999999999e-08,0.0,0.0,0.0,8.999999999999999e-08,0.0,0.0,0.0,8.999999999999999e-08
30911000000,5763,30911000000,base_link,0.00594134640417164,-0.012065400713726847,0.029688408678467892,-0.9994687640070976,1.0,0.0,0.0,0.0,1.0,0.0,0.0,0.0,1.0,0.0009678537026047707,0.0041541666723787785,0.0009993467247113581,1.2184696791468346e-07,0.0,0.0,0.0,1.2184696791468346e-07,0.0,0.0,0.0,1.2184696791468346e-07,-0.2810751795768738,-0.14617034792899966,9.786121368408203,8.999999999999999e-08,0.0,0.0,0.0,8.999999999999999e-08,0.0,0.0,0.0,8.999999999999999e-08
30916000000,5764,30916000000,base_link,0.005944432673008302,-0.012067470848387692,0.02969228618853087,-0.9994685954197036,1.0,0.0,0.0,0.0,1.0,0.0,0.0,0.0,1.0,-0.00047503376845270395,0.0010682442225515842,0.000238285632804036,1.2184696791468346e-07,0.0,0.0,0.0,1.2184696791468346e-07,0.0,0.0,0.0,1.2184696791468346e-07,-0.23213426768779755,-0.12479647994041324,9.779924392700195,8.999999999999999e-08,0.0,0.0,0.0,8.999999999999999e-08,0.0,0.0,0.0,8.999999999999999e-08
30920000000,5765,30920000000,base_link,0.00594785282391051,-0.012058703316080664,0.02969026313980233,-0.9994687640070976,1.0,0.0,0.0,0.0,1.0,0.0,0.0,0.0,1.0,-0.001926842494867742,-0.0006829448975622655,-0.0006579135661013423,1.2184696791468346e-07,0.0,0.0,0.0,1.2184696791468346e-07,0.0,0.0,0.0,1.2184696791468346e-07,-0.18175724148750305,-0.16771174967288852,9.786303520202637,8.999999999999999e-08,0.0,0.0,0.0,8.999999999999999e-08,0.0,0.0,0.0,8.999999999999999e-08
30925000000,5766,30925000000,base_link,0.005951474818704414,-0.012067934792993564,0.029692286188530814,-0.9994685111260067,1.0,0.0,0.0,0.0,1.0,0.0,0.0,0.0,1.0,-0.0012779460521414876,0.0011800257489085197,-0.00030217965831980125,1.2184696791468346e-07,0.0,0.0,0.0,1.2184696791468346e-07,0.0,0.0,0.0,1.2184696791468346e-07,-0.1905864030122757,-0.1765480935573566,9.79101276397705,8.999999999999999e-08,0.0,0.0,0.0,8.999999999999999e-08,0.0,0.0,0.0,8.999999999999999e-08
30930000000,5767,30930000000,base_link,0.00595534837750037,-0.012077631202329102,0.02969810245362542,-0.9994681739512186,1.0,0.0,0.0,0.0,1.0,0.0,0.0,0.0,1.0,-0.0012563952477648854,0.003332885447889566,-0.0020005372352898125,1.2184696791468346e-07,0.0,0.0,0.0,1.2184696791468346e-07,0.0,0.0,0.0,1.2184696791468346e-07,-0.20852959156036377,-0.13128186762332797,9.803179740905762,8.999999999999999e-08,0.0,0.0,0.0,8.999999999999999e-08,0.0,0.0,0.0,8.999999999999999e-08
30935000000,5768,30934000000,base_link,0.005955313145369192,-0.012090465905517432,0.029694519971501965,-0.999468216098067,1.0,0.0,0.0,0.0,1.0,0.0,0.0,0.0,1.0,-0.0009567629313096404,0.0055136787705123425,-0.0006472789682447917,1.2184696791468346e-07,0.0,0.0,0.0,1.2184696791468346e-07,0.0,0.0,0.0,1.2184696791468346e-07,-0.20117998123168945,-0.1410818248987186,9.855988502502441,8.999999999999999e-08,0.0,0.0,0.0,8.999999999999999e-08,0.0,0.0,0.0,8.999999999999999e-08
30941000000,5769,30941000000,base_link,0.005959178472358796,-0.012102409597986459,0.02969970403386879,-0.9994678367764305,1.0,0.0,0.0,0.0,1.0,0.0,0.0,0.0,1.0,-0.0009920381708070636,0.0046457150019705296,-0.0010223592398688204,1.2184696791468346e-07,0.0,0.0,0.0,1.2184696791468346e-07,0.0,0.0,0.0,1.2184696791468346e-07,-0.19543515145778656,-0.16100336611270785,9.797850608825684,8.999999999999999e-08,0.0,0.0,0.0,8.999999999999999e-08,0.0,0.0,0.0,8.999999999999999e-08
30946000000,5770,30945000000,base_link,0.0059592087654061635,-0.012110782332860951,0.029700462677141992,-0.9994677524827333,1.0,0.0,0.0,0.0,1.0,0.0,0.0,0.0,1.0,-0.0008401310769841075,0.0038366890512406826,-0.0009176952298730616,1.2184696791468346e-07,0.0,0.0,0.0,1.2184696791468346e-07,0.0,0.0,0.0,1.2184696791468346e-07,-0.26450324058532715,-0.14268150925636172,9.748283386230469,8.999999999999999e-08,0.0,0.0,0.0,8.999999999999999e-08,0.0,0.0,0.0,8.999999999999999e-08
30950000000,5771,30950000000,base_link,0.005955000666000154,-0.012121917003401924,0.029703581543931823,-0.9994675838953393,1.0,0.0,0.0,0.0,1.0,0.0,0.0,0.0,1.0,0.0007896394236013293,0.00441528158262372,-0.0012966600479558115,1.2184696791468346e-07,0.0,0.0,0.0,1.2184696791468346e-07,0.0,0.0,0.0,1.2184696791468346e-07,-0.24054959416389465,-0.17473265528678775,9.789319038391113,8.999999999999999e-08,0.0,0.0,0.0,8.999999999999999e-08,0.0,0.0,0.0,8.999999999999999e-08
30955000000,5772,30955000000,base_link,0.005959000006797134,-0.01212240103361529,0.02970054697083907,-0.9994675838953393,1.0,0.0,0.0,0.0,1.0,0.0,0.0,0.0,1.0,-0.0002762854564934969,0.002571402583271265,-4.736980190500648e-05,1.2184696791468346e-07,0.0,0.0,0.0,1.2184696791468346e-07,0.0,0.0,0.0,1.2184696791468346e-07,-0.21691276133060455,-0.15936939418315768,9.805397987365723,8.999999999999999e-08,0.0,0.0,0.0,8.999999999999999e-08,0.0,0.0,0.0,8.999999999999999e-08
30960000000,5773,30960000000,base_link,0.005956245315120242,-0.01212515045693612,0.029699661887020334,-0.9994676260421879,1.0,0.0,0.0,0.0,1.0,0.0,0.0,0.0,1.0,0.0010777295101433992,0.0017351731657981875,0.0009331587934866545,1.2184696791468346e-07,0.0,0.0,0.0,1.2184696791468346e-07,0.0,0.0,0.0,1.2184696791468346e-07,-0.2723865509033203,-0.20825187861919284,9.815099716186523,8.999999999999999e-08,0.0,0.0,0.0,8.999999999999999e-08,0.0,0.0,0.0,8.999999999999999e-08
30964000000,5774,30964000000,base_link,0.005948748115169112,-0.012127557107840543,0.029697933866231374,-0.9994676681890364,1.0,0.0,0.0,0.0,1.0,0.0,0.0,0.0,1.0,0.0029740198515355587,0.0006113997660577296,-0.0004901999491266907,1.2184696791468346e-07,0.0,0.0,0.0,1.2184696791468346e-07,0.0,0.0,0.0,1.2184696791468346e-07,-0.24078525602817535,-0.2038523703813541,9.76626968383789,8.999999999999999e-08,0.0,0.0,0.0,8.999999999999999e-08,0.0,0.0,0.0,8.999999999999999e-08
30971000000,5775,30971000000,base_link,0.005937633200963379,-0.012138029282606483,0.029702654313264576,-0.9994674996016424,1.0,0.0,0.0,0.0,1.0,0.0,0.0,0.0,1.0,0.0025665718130767345,0.0025822599418461323,-0.0011089607141911986,1.2184696791468346e-07,0.0,0.0,0.0,1.2184696791468346e-07,0.0,0.0,0.0,1.2184696791468346e-07,-0.212946355342865,-0.18636247515678286,9.77401351928711,8.999999999999999e-08,0.0,0.0,0.0,8.999999999999999e-08,0.0,0.0,0.0,8.999999999999999e-08
30975000000,5776,30975000000,base_link,0.0059369921078848585,-0.012134769158019714,0.029707880522479857,-0.9994673310142483,1.0,0.0,0.0,0.0,1.0,0.0,0.0,0.0,1.0,0.0012002992443740368,0.0017119213007390497,-0.0011507906019687655,1.2184696791468346e-07,0.0,0.0,0.0,1.2184696791468346e-07,0.0,0.0,0.0,1.2184696791468346e-07,-0.23540347814559937,-0.1429080218076694,9.736554145812988,8.999999999999999e-08,0.0,0.0,0.0,8.999999999999999e-08,0.0,0.0,0.0,8.999999999999999e-08
30980000000,5777,30980000000,base_link,0.005931250258319756,-0.01213671647412982,0.029709650690117384,-0.9994673310142482,1.0,0.0,0.0,0.0,1.0,0.0,0.0,0.0,1.0,0.0005961432470940053,0.0010451884008944032,-0.0017988175386562946,1.2184696791468346e-07,0.0,0.0,0.0,1.2184696791468346e-07,0.0,0.0,0.0,1.2184696791468346e-07,-0.1971883624792099,-0.19348858296871066,9.783817291259766,8.999999999999999e-08,0.0,0.0,0.0,8.999999999999999e-08,0.0,0.0,0.0,8.999999999999999e-08
30985000000,5778,30985000000,base_link,0.005937640774225222,-0.01214810270867284,0.029721072486063815,-0.9994667831052175,1.0,0.0,0.0,0.0,1.0,0.0,0.0,0.0,1.0,-3.172166179865599e-05,0.0029032113961875434,-0.0027285739779472355,1.2184696791468346e-07,0.0,0.0,0.0,1.2184696791468346e-07,0.0,0.0,0.0,1.2184696791468346e-07,-0.20212441682815552,-0.17158326506614566,9.775389671325684,8.999999999999999e-08,0.0,0.0,0.0,8.999999999999999e-08,0.0,0.0,0.0,8.999999999999999e-08
30990000000,5779,30990000000,base_link,0.005942325001310503,-0.012144281174893017,0.0297191337310323,-0.9994668673989147,1.0,0.0,0.0,0.0,1.0,0.0,0.0,0.0,1.0,-0.0002999940188601613,0.001485831569880247,-0.0012074050027877095,1.2184696791468346e-07,0.0,0.0,0.0,1.2184696791468346e-07,0.0,0.0,0.0,1.2184696791468346e-07,-0.23538954555988312,-0.12777674198150515,9.781307220458984,8.999999999999999e-08,0.0,0.0,0.0,8.999999999999999e-08,0.0,0.0,0.0,8.999999999999999e-08
30996000000,5780,30996000000,base_link,0.005945445514461579,-0.012148782655877334,0.029722252597822074,-0.9994666988115206,1.0,0.0,0.0,0.0,1.0,0.0,0.0,0.0,1.0,0.0001540838275104761,0.0017496673390269277,-0.0012224520323798063,1.2184696791468346e-07,0.0,0.0,0.0,1.2184696791468346e-07,0.0,0.0,0.0,1.2184696791468346e-07,-0.2161056250333786,-0.16969911754131198,9.757539749145508,8.999999999999999e-08,0.0,0.0,0.0,8.999999999999999e-08,0.0,0.0,0.0,8.999999999999999e-08
31001000000,5781,31000000000,base_link,0.005949468562860845,-0.0121512383683476,0.029721999716731007,-0.9994666145178236,1.0,0.0,0.0,0.0,1.0,0.0,0.0,0.0,1.0,0.0004617901286110282,0.0010232487693428993,-0.0007615011418238283,1.2184696791468346e-07,0.0,0.0,0.0,1.2184696791468346e-07,0.0,0.0,0.0,1.2184696791468346e-07,-0.2187279909849167,-0.18853126466274142,9.83901309967041,8.999999999999999e-08,0.0,0.0,0.0,8.999999999999999e-08,0.0,0.0,0.0,8.999999999999999e-08
31005000000,5782,31005000000,base_link,0.005967295691964191,-0.012149168892231265,0.02973055552697873,-0.999466319489884,1.0,0.0,0.0,0.0,1.0,0.0,0.0,0.0,1.0,-0.0020795916207134724,0.0011723944917321203,-0.0014350344426929953,1.2184696791468346e-07,0.0,0.0,0.0,1.2184696791468346e-07,0.0,0.0,0.0,1.2184696791468346e-07,-0.2346908301115036,-0.16194874048232913,9.784208297729492,8.999999999999999e-08,0.0,0.0,0.0,8.999999999999999e-08,0.0,0.0,0.0,8.999999999999999e-08
31010000000,5783,31010000000,base_link,0.005969918345467233,-0.012144517921643637,0.029735275974012043,-0.9994662351961869,1.0,0.0,0.0,0.0,1.0,0.0,0.0,0.0,1.0,-0.0015723680844530463,-0.00025651324540376685,-0.0018988469382748008,1.2184696791468346e-07,0.0,0.0,0.0,1.2184696791468346e-07,0.0,0.0,0.0,1.2184696791468346e-07,-0.24361343681812286,-0.17897094786167025,9.808331489562988,8.999999999999999e-08,0.0,0.0,0.0,8.999999999999999e-08,0.0,0.0,0.0,8.999999999999999e-08
31015000000,5784,31015000000,base_link,0.005974637804683691,-0.012135524508570372,0.029737425463286005,-0.9994662773430356,1.0,0.0,0.0,0.0,1.0,0.0,0.0,0.0,1.0,-0.0009057979332283139,-0.002641516737639904,-0.0005747205577790734,1.2184696791468346e-07,0.0,0.0,0.0,1.2184696791468346e-07,0.0,0.0,0.0,1.2184696791468346e-07,-0.22771503031253815,-0.1260000914335239,9.746322631835938,8.999999999999999e-08,0.0,0.0,0.0,8.999999999999999e-08,0.0,0.0,0.0,8.999999999999999e-08
31019000000,5785,31019000000,base_link,0.005981004942259122,-0.012128822830384885,0.02974142941389457,-0.99946615090249,1.0,0.0,0.0,0.0,1.0,0.0,0.0,0.0,1.0,-0.0010434611467644572,-0.00205267034471035,-0.0005427933065220711,1.2184696791468346e-07,0.0,0.0,0.0,1.2184696791468346e-07,0.0,0.0,0.0,1.2184696791468346e-07,-0.2521958351135254,-0.1765291243791568,9.8635892868042,8.999999999999999e-08,0.0,0.0,0.0,8.999999999999999e-08,0.0,0.0,0.0,8.999999999999999e-08
31026000000,5786,31026000000,base_link,0.005991706619786095,-0.01212247018078863,0.029740923651712436,-0.99946615090249,1.0,0.0,0.0,0.0,1.0,0.0,0.0,0.0,1.0,-0.00010513525921851397,-0.0011604931205511093,0.0005563820013776423,1.2184696791468346e-07,0.0,0.0,0.0,1.2184696791468346e-07,0.0,0.0,0.0,1.2184696791468346e-07,-0.2214883714914322,-0.173911005258559,9.796279907226562,8.999999999999999e-08,0.0,0.0,0.0,8.999999999999999e-08,0.0,0.0,0.0,8.999999999999999e-08
31030000000,5787,31030000000,base_link,0.005987888378728812,-0.012115589707769226,0.02973026049903915,-0.9994666145178235,1.0,0.0,0.0,0.0,1.0,0.0,0.0,0.0,1.0,0.0022373064421117306,-0.0015830551274120803,0.003585018217563629,1.2184696791468346e-07,0.0,0.0,0.0,1.2184696791468346e-07,0.0,0.0,0.0,1.2184696791468346e-07,-0.25679683685302734,-0.15312254428863406,9.769281387329102,8.999999999999999e-08,0.0,0.0,0.0,8.999999999999999e-08,0.0,0.0,0.0,8.999999999999999e-08
31035000000,5788,31035000000,base_link,0.005987304249750231,-0.012124360862071047,0.029726298695279207,-0.9994666145178236,1.0,0.0,0.0,0.0,1.0,0.0,0.0,0.0,1.0,0.0026114017236977816,0.0018047876656055455,0.00340287247672677,1.2184696791468346e-07,0.0,0.0,0.0,1.2184696791468346e-07,0.0,0.0,0.0,1.2184696791468346e-07,-0.22105924785137177,-0.1203976422548282,9.818990707397461,8.999999999999999e-08,0.0,0.0,0.0,8.999999999999999e-08,0.0,0.0,0.0,8.999999999999999e-08
31040000000,5789,31040000000,base_link,0.005992102734307648,-0.01212587650225617,0.029728532478250247,-0.9994664880772781,1.0,0.0,0.0,0.0,1.0,0.0,0.0,0.0,1.0,0.00026943418197333813,0.0024759043008089066,0.00035004271194338766,1.2184696791468346e-07,0.0,0.0,0.0,1.2184696791468346e-07,0.0,0.0,0.0,1.2184696791468346e-07,-0.23692166805267334,-0.11467955261468767,9.826025009155273,8.999999999999999e-08,0.0,0.0,0.0,8.999999999999999e-08,0.0,0.0,0.0,8.999999999999999e-08
31044000000,5790,31044000000,base_link,0.005995175832254149,-0.012123908441994064,0.029737804784922606,-0.999466235196187,1.0,0.0,0.0,0.0,1.0,0.0,0.0,0.0,1.0,0.0009118699235841632,0.000775644555687904,-0.0024036159738898277,1.2184696791468346e-07,0.0,0.0,0.0,1.2184696791468346e-07,0.0,0.0,0.0,1.2184696791468346e-07,-0.2292051464319229,-0.21039262413978457,9.785279273986816,8.999999999999999e-08,0.0,0.0,0.0,8.999999999999999e-08,0.0,0.0,0.0,8.999999999999999e-08
31049000000,5791,31049000000,base_link,0.0059948393160105685,-0.012120562377349002,0.02974374749056269,-0.9994661087556415,1.0,0.0,0.0,0.0,1.0,0.0,0.0,0.0,1.0,0.0017263542395085096,0.0005194386467337606,-0.001959202578291297,1.2184696791468346e-07,0.0,0.0,0.0,1.2184696791468346e-07,0.0,0.0,0.0,1.2184696791468346e-07,-0.2066979706287384,-0.14263466000556826,9.803418159484863,8.999999999999999e-08,0.0,0.0,0.0,8.999999999999999e-08,0.0,0.0,0.0,8.999999999999999e-08
31055000000,5792,31055000000,base_link,0.005999889364570034,-0.012127262079900966,0.029737846931771117,-0.9994661930493385,1.0,0.0,0.0,0.0,1.0,0.0,0.0,0.0,1.0,0.00024842971470206976,0.0033702007494866852,0.0020086765289306636,1.2184696791468346e-07,0.0,0.0,0.0,1.2184696791468346e-07,0.0,0.0,0.0,1.2184696791468346e-07,-0.229606494307518,-0.13350459933280825,9.830069541931152,8.999999999999999e-08,0.0,0.0,0.0,8.999999999999999e-08,0.0,0.0,0.0,8.999999999999999e-08
31060000000,5793,31060000000,base_link,0.006008266709256082,-0.012133534716339501,0.029738268400256285,-0.9994660244619444,1.0,0.0,0.0,0.0,1.0,0.0,0.0,0.0,1.0,-0.0017562521388754249,0.003928384277969599,0.0010844777571037407,1.2184696791468346e-07,0.0,0.0,0.0,1.2184696791468346e-07,0.0,0.0,0.0,1.2184696791468346e-07,-0.24922695755958557,-0.15044596791267276,9.805205345153809,8.999999999999999e-08,0.0,0.0,0.0,8.999999999999999e-08,0.0,0.0,0.0,8.999999999999999e-08
31065000000,5794,31065000000,base_link,0.006029116886923323,-0.012139071100018111,0.02973742546328606,-0.9994658558745504,1.0,0.0,0.0,0.0,1.0,0.0,0.0,0.0,1.0,-0.003192204050719738,0.0031784377060830593,0.0012129573151469226,1.2184696791468346e-07,0.0,0.0,0.0,1.2184696791468346e-07,0.0,0.0,0.0,1.2184696791468346e-07,-0.1275271475315094,-0.1386430859565723,9.807698249816895,8.999999999999999e-08,0.0,0.0,0.0,8.999999999999999e-08,0.0,0.0,0.0,8.999999999999999e-08
31070000000,5795,31069000000,base_link,0.006025192290928,-0.012140859377629539,0.029738226253407773,-0.9994658980213988,1.0,0.0,0.0,0.0,1.0,0.0,0.0,0.0,1.0,-0.0009393281070515513,0.0027095871046185493,0.0013386016944423314,1.2184696791468346e-07,0.0,0.0,0.0,1.2184696791468346e-07,0.0,0.0,0.0,1.2184696791468346e-07,-0.24964143335819244,-0.15319663286208987,9.810312271118164,8.999999999999999e-08,0.0,0.0,0.0,8.999999999999999e-08,0.0,0.0,0.0,8.999999999999999e-08
31074000000,5796,31074000000,base_link,0.00602402403297084,-0.012140145515382885,0.02974088150486398,-0.9994657715808534,1.0,0.0,0.0,0.0,1.0,0.0,0.0,0.0,1.0,0.001878090901300311,0.0012501808814704418,0.0005317436298355459,1.2184696791468346e-07,0.0,0.0,0.0,1.2184696791468346e-07,0.0,0.0,0.0,1.2184696791468346e-07,-0.26572293043136597,-0.1745019406080234,9.793051719665527,8.999999999999999e-08,0.0,0.0,0.0,8.999999999999999e-08,0.0,0.0,0.0,8.999999999999999e-08
31081000000,5797,31080000000,base_link,0.006023539014940709,-0.012132475118226156,0.02974138726704606,-0.9994658558745504,1.0,0.0,0.0,0.0,1.0,0.0,0.0,0.0,1.0,0.0028410875238478184,0.0008376878686249256,0.00018755276687443246,1.2184696791468346e-07,0.0,0.0,0.0,1.2184696791468346e-07,0.0,0.0,0.0,1.2184696791468346e-07,-0.24485161900520325,-0.1353820562362659,9.773265838623047,8.999999999999999e-08,0.0,0.0,0.0,8.999999999999999e-08,0.0,0.0,0.0,8.999999999999999e-08
31085000000,5798,31085000000,base_link,0.006017121498710418,-0.012139681570777012,0.029743705343714122,-0.9994657294340049,1.0,0.0,0.0,0.0,1.0,0.0,0.0,0.0,1.0,0.0035061724483966827,0.0022107483819127083,0.0003087936202064154,1.2184696791468346e-07,0.0,0.0,0.0,1.2184696791468346e-07,0.0,0.0,0.0,1.2184696791468346e-07,-0.2218414843082428,-0.1665112078189838,9.828807830810547,8.999999999999999e-08,0.0,0.0,0.0,8.999999999999999e-08,0.0,0.0,0.0,8.999999999999999e-08
31090000000,5799,31090000000,base_link,0.006016921301179991,-0.012137771791703863,0.02974779358801971,-0.9994656872871563,1.0,0.0,0.0,0.0,1.0,0.0,0.0,0.0,1.0,0.0020338366739451885,0.0010751779191195965,-0.0006296755746006967,1.2184696791468346e-07,0.0,0.0,0.0,1.2184696791468346e-07,0.0,0.0,0.0,1.2184696791468346e-07,-0.23322610557079315,-0.14479869604110598,9.799795150756836,8.999999999999999e-08,0.0,0.0,0.0,8.999999999999999e-08,0.0,0.0,0.0,8.999999999999999e-08
31095000000,5800,31095000000,base_link,0.006025214022896763,-0.012134319372120762,0.029750575280021507,-0.9994655186997623,1.0,0.0,0.0,0.0,1.0,0.0,0.0,0.0,1.0,-0.0004025163361802697,0.0003768745809793472,-0.0005067335441708565,1.2184696791468346e-07,0.0,0.0,0.0,1.2184696791468346e-07,0.0,0.0,0.0,1.2184696791468346e-07,-0.24778105318546295,-0.14405672252178073,9.771172523498535,8.999999999999999e-08,0.0,0.0,0.0,8.999999999999999e-08,0.0,0.0,0.0,8.999999999999999e-08
31099000000,5801,31099000000,base_link,0.00602427987751219,-0.012130737219269591,0.02975183968547679,-0.9994655186997623,1.0,0.0,0.0,0.0,1.0,0.0,0.0,0.0,1.0,0.00046242919052019715,-0.00021397462114691742,-0.0006326895672827959,1.2184696791468346e-07,0.0,0.0,0.0,1.2184696791468346e-07,0.0,0.0,0.0,1.2184696791468346e-07,-0.2256924957036972,-0.19809804856777072,9.75389575958252,8.999999999999999e-08,0.0,0.0,0.0,8.999999999999999e-08,0.0,0.0,0.0,8.999999999999999e-08
31104000000,5802,31104000000,base_link,0.006022685870530618,-0.012132357568031481,0.029758203859601928,-0.9994653922592167,1.0,0.0,0.0,0.0,1.0,0.0,0.0,0.0,1.0,0.0015937051502987742,0.0013498999178409574,-0.0017451838357374074,1.2184696791468346e-07,0.0,0.0,0.0,1.2184696791468346e-07,0.0,0.0,0.0,1.2184696791468346e-07,-0.22064007818698883,-0.1726406514644611,9.807122230529785,8.999999999999999e-08,0.0,0.0,0.0,8.999999999999999e-08,0.0,0.0,0.0,8.999999999999999e-08
31110000000,5803,31110000000,base_link,0.006034847541231788,-0.012122839294985354,0.02977228090700451,-0.9994649707907317,1.0,0.0,0.0,0.0,1.0,0.0,0.0,0.0,1.0,-0.0007712006336078048,-0.0007679625414311889,-0.0025409222580492496,1.2184696791468346e-07,0.0,0.0,0.0,1.2184696791468346e-07,0.0,0.0,0.0,1.2184696791468346e-07,-0.21919667720794678,-0.15659193694591403,9.784001350402832,8.999999999999999e-08,0.0,0.0,0.0,8.999999999999999e-08,0.0,0.0,0.0,8.999999999999999e-08
31115000000,5804,31115000000,base_link,0.006038283826474444,-0.012121486644565959,0.02977443039627864,-0.9994649286438831,1.0,0.0,0.0,0.0,1.0,0.0,0.0,0.0,1.0,-0.0015442300355061889,-0.0005048206076025965,-0.0021455020178109407,1.2184696791468346e-07,0.0,0.0,0.0,1.2184696791468346e-07,0.0,0.0,0.0,1.2184696791468346e-07,-0.2141314297914505,-0.1862993836402881,9.823874473571777,8.999999999999999e-08,0.0,0.0,0.0,8.999999999999999e-08,0.0,0.0,0.0,8.999999999999999e-08
31120000000,5805,31120000000,base_link,0.006042735587348406,-0.012115437254715629,0.029780246661373133,-0.9994647600564891,1.0,0.0,0.0,0.0,1.0,0.0,0.0,0.0,1.0,-0.00023910787422209978,-0.0008765622042119504,-0.0008154609822668134,1.2184696791468346e-07,0.0,0.0,0.0,1.2184696791468346e-07,0.0,0.0,0.0,1.2184696791468346e-07,-0.19948148727416992,-0.14972876012325168,9.799348831176758,8.999999999999999e-08,0.0,0.0,0.0,8.999999999999999e-08,0.0,0.0,0.0,8.999999999999999e-08
31125000000,5806,31125000000,base_link,0.006040529792518919,-0.012115930833824362,0.02978205897585906,-0.9994647179096406,1.0,0.0,0.0,0.0,1.0,0.0,0.0,0.0,1.0,0.001045323209837079,0.0007612444460391998,-0.0002396911149844528,1.2184696791468346e-07,0.0,0.0,0.0,1.2184696791468346e-07,0.0,0.0,0.0,1.2184696791468346e-07,-0.1861521601676941,-0.13480497896671176,9.802909851074219,8.999999999999999e-08,0.0,0.0,0.0,8.999999999999999e-08,0.0,0.0,0.0,8.999999999999999e-08
31129000000,5807,31129000000,base_link,0.006041709245732714,-0.01210872964962957,0.029779825192887965,-0.9994649286438833,1.0,0.0,0.0,0.0,1.0,0.0,0.0,0.0,1.0,0.0009532811818644404,0.00012567592784762388,0.0004771625972352922,1.2184696791468346e-07,0.0,0.0,0.0,1.2184696791468346e-07,0.0,0.0,0.0,1.2184696791468346e-07,-0.19550347328186035,-0.17253337800502658,9.811588287353516,8.999999999999999e-08,0.0,0.0,0.0,8.999999999999999e-08,0.0,0.0,0.0,8.999999999999999e-08
31134000000,5808,31134000000,base_link,0.006046555145494705,-0.012103266035119091,0.02978366055610243,-0.9994648022033377,1.0,0.0,0.0,0.0,1.0,0.0,0.0,0.0,1.0,-0.0002507487079128623,-0.001202133484184742,-0.0001834376016631721,1.2184696791468346e-07,0.0,0.0,0.0,1.2184696791468346e-07,0.0,0.0,0.0,1.2184696791468346e-07,-0.21057561039924622,-0.16854944825172305,9.808318138122559,8.999999999999999e-08,0.0,0.0,0.0,8.999999999999999e-08,0.0,0.0,0.0,8.999999999999999e-08
31139000000,5809,31139000000,base_link,0.006042875198784099,-0.012100658198867478,0.029786610835498273,-0.9994648022033377,1.0,0.0,0.0,0.0,1.0,0.0,0.0,0.0,1.0,0.000545490300282836,-0.001704593189060688,-0.0006156694144010542,1.2184696791468346e-07,0.0,0.0,0.0,1.2184696791468346e-07,0.0,0.0,0.0,1.2184696791468346e-07,-0.23471637070178986,-0.16502387821674228,9.783487319946289,8.999999999999999e-08,0.0,0.0,0.0,8.999999999999999e-08,0.0,0.0,0.0,8.999999999999999e-08
31145000000,5810,31145000000,base_link,0.006068100746162376,-0.012095543283673977,0.029772575934944145,-0.9994650972312772,1.0,0.0,0.0,0.0,1.0,0.0,0.0,0.0,1.0,-0.003976093605160713,-0.0001652450300753113,0.002769088139757514,1.2184696791468346e-07,0.0,0.0,0.0,1.2184696791468346e-07,0.0,0.0,0.0,1.2184696791468346e-07,-0.2342098355293274,-0.1909719854593265,9.824397087097168,8.999999999999999e-08,0.0,0.0,0.0,8.999999999999999e-08,0.0,0.0,0.0,8.999999999999999e-08
31150000000,5811,31150000000,base_link,0.006074215990463504,-0.012089313452628462,0.029772786669186646,-0.9994651393781258,1.0,0.0,0.0,0.0,1.0,0.0,0.0,0.0,1.0,-0.0036966269835829735,-0.00022619729861617053,0.0029674051329493523,1.2184696791468346e-07,0.0,0.0,0.0,1.2184696791468346e-07,0.0,0.0,0.0,1.2184696791468346e-07,-0.2025657743215561,-0.1492840051650989,9.77539348602295,8.999999999999999e-08,0.0,0.0,0.0,8.999999999999999e-08,0.0,0.0,0.0,8.999999999999999e-08
31155000000,5812,31155000000,base_link,0.006074355601899196,-0.012085773117353546,0.02977046859251853,-0.9994652658186713,1.0,0.0,0.0,0.0,1.0,0.0,0.0,0.0,1.0,-0.001448105089366436,-0.0002440828830003736,0.002058727201074362,1.2184696791468346e-07,0.0,0.0,0.0,1.2184696791468346e-07,0.0,0.0,0.0,1.2184696791468346e-07,-0.19923357665538788,-0.18024253845214724,9.827779769897461,8.999999999999999e-08,0.0,0.0,0.0,8.999999999999999e-08,0.0,0.0,0.0,8.999999999999999e-08
31159000000,5813,31159000000,base_link,0.006072683557393428,-0.01209020182916973,0.029773208137671814,-0.9994651393781258,1.0,0.0,0.0,0.0,1.0,0.0,0.0,0.0,1.0,0.0005634685512632132,0.0013779602013528347,0.0008215578855015335,1.2184696791468346e-07,0.0,0.0,0.0,1.2184696791468346e-07,0.0,0.0,0.0,1.2184696791468346e-07,-0.24529270827770233,-0.1948765516281116,9.816476821899414,8.999999999999999e-08,0.0,0.0,0.0,8.999999999999999e-08,0.0,0.0,0.0,8.999999999999999e-08
31164000000,5814,31164000000,base_link,0.006073292381791057,-0.012090223890410748,0.02977017356457895,-0.9994652236718228,1.0,0.0,0.0,0.0,1.0,0.0,0.0,0.0,1.0,0.0016831922112032771,0.0019986177794635296,0.0009668761049397288,1.2184696791468346e-07,0.0,0.0,0.0,1.2184696791468346e-07,0.0,0.0,0.0,1.2184696791468346e-07,-0.23060189187526703,-0.2614082396030414,9.835786819458008,8.999999999999999e-08,0.0,0.0,0.0,8.999999999999999e-08,0.0,0.0,0.0,8.999999999999999e-08
31170000000,5815,31170000000,base_link,0.006065491922094002,-0.012089016778327615,0.02977329243136878,-0.9994651393781256,1.0,0.0,0.0,0.0,1.0,0.0,0.0,0.0,1.0,0.0023223417811095715,0.0010966998524963856,0.0007776141283102332,1.2184696791468346e-07,0.0,0.0,0.0,1.2184696791468346e-07,0.0,0.0,0.0,1.2184696791468346e-07,-0.25306329131126404,-0.1320524811744678,9.827680587768555,8.999999999999999e-08,0.0,0.0,0.0,8.999999999999999e-08,0.0,0.0,0.0,8.999999999999999e-08
31175000000,5816,31175000000,base_link,0.006067638118645518,-0.012091592345898336,0.029777970731553527,-0.9994650129375802,1.0,0.0,0.0,0.0,1.0,0.0,0.0,0.0,1.0,0.00046256009954959154,0.0014636148698627949,-0.0003156939055770637,1.2184696791468346e-07,0.0,0.0,0.0,1.2184696791468346e-07,0.0,0.0,0.0,1.2184696791468346e-07,-0.26678720116615295,-0.17820735275745272,9.831764221191406,8.999999999999999e-08,0.0,0.0,0.0,8.999999999999999e-08,0.0,0.0,0.0,8.999999999999999e-08
31180000000,5817,31180000000,base_link,0.006074451420125107,-0.012085448125638857,0.02978648439495274,-0.9994647600564891,1.0,0.0,0.0,0.0,1.0,0.0,0.0,0.0,1.0,-0.002864000853151083,-0.00018307333812117606,-0.0024638802278786898,1.2184696791468346e-07,0.0,0.0,0.0,1.2184696791468346e-07,0.0,0.0,0.0,1.2184696791468346e-07,-0.2171248495578766,-0.16597610712051272,9.822517395019531,8.999999999999999e-08,0.0,0.0,0.0,8.999999999999999e-08,0.0,0.0,0.0,8.999999999999999e-08
31185000000,5818,31184000000,base_link,0.006086328928871084,-0.01208844713732821,0.02978930823380299,-0.9994646336159436,1.0,0.0,0.0,0.0,1.0,0.0,0.0,0.0,1.0,-0.003031665924936533,0.001336624380201101,-0.001509490190073848,1.2184696791468346e-07,0.0,0.0,0.0,1.2184696791468346e-07,0.0,0.0,0.0,1.2184696791468346e-07,-0.2293926328420639,-0.17303594946861148,9.791544914245605,8.999999999999999e-08,0.0,0.0,0.0,8.999999999999999e-08,0.0,0.0,0.0,8.999999999999999e-08
31189000000,5819,31189000000,base_link,0.0060815439444760816,-0.012091238048953042,0.029797442575565547,-0.999464338588004,1.0,0.0,0.0,0.0,1.0,0.0,0.0,0.0,1.0,-0.00017459969967603683,0.0017025680281221867,-0.0007179040694609287,1.2184696791468346e-07,0.0,0.0,0.0,1.2184696791468346e-07,0.0,0.0,0.0,1.2184696791468346e-07,-0.21467137336730957,-0.15693430602550387,9.819430351257324,8.999999999999999e-08,0.0,0.0,0.0,8.999999999999999e-08,0.0,0.0,0.0,8.999999999999999e-08
31194000000,5820,31194000000,base_link,0.006079964096201432,-0.012090469527512224,0.02980292166587195,-0.9994641700006099,1.0,0.0,0.0,0.0,1.0,0.0,0.0,0.0,1.0,0.0009256536141037941,0.0014045936986804006,-0.0011910935863852503,1.2184696791468346e-07,0.0,0.0,0.0,1.2184696791468346e-07,0.0,0.0,0.0,1.2184696791468346e-07,-0.20270074903964996,-0.16186787188053012,9.838176727294922,8.999999999999999e-08,0.0,0.0,0.0,8.999999999999999e-08,0.0,0.0,0.0,8.999999999999999e-08
31200000000,5821,31200000000,base_link,0.006083364820040655,-0.012091245292942627,0.02979921274320302,-0.999464254294307,1.0,0.0,0.0,0.0,1.0,0.0,0.0,0.0,1.0,-0.00024833495263010263,0.0016590179875493052,0.0015099165029823778,1.2184696791468346e-07,0.0,0.0,0.0,1.2184696791468346e-07,0.0,0.0,0.0,1.2184696791468346e-07,-0.23388057947158813,-0.2188231498002994,9.81519889831543,8.999999999999999e-08,0.0,0.0,0.0,8.999999999999999e-08,0.0,0.0,0.0,8.999999999999999e-08
31205000000,5822,31205000000,base_link,0.006081128732163799,-0.01207955579865368,0.029795208792594507,-0.9994645493222465,1.0,0.0,0.0,0.0,1.0,0.0,0.0,0.0,1.0,0.0005179608706384897,-0.0010362290777266023,0.0020931691396981478,1.2184696791468346e-07,0.0,0.0,0.0,1.2184696791468346e-07,0.0,0.0,0.0,1.2184696791468346e-07,-0.2481849491596222,-0.1643577367067325,9.796850204467773,8.999999999999999e-08,0.0,0.0,0.0,8.999999999999999e-08,0.0,0.0,0.0,8.999999999999999e-08
31210000000,5823,31210000000,base_link,0.006080283490287803,-0.012078795509019215,0.029790783373500884,-0.9994646757627921,1.0,0.0,0.0,0.0,1.0,0.0,0.0,0.0,1.0,0.0004000163171440363,-0.001542462734505534,0.0025159374345093966,1.2184696791468346e-07,0.0,0.0,0.0,1.2184696791468346e-07,0.0,0.0,0.0,1.2184696791468346e-07,-0.22673127055168152,-0.16161598265170932,9.797694206237793,8.999999999999999e-08,0.0,0.0,0.0,8.999999999999999e-08,0.0,0.0,0.0,8.999999999999999e-08
31214000000,5824,31214000000,base_link,0.006082848191874141,-0.01207420512452632,0.02979596743586771,-0.9994646336159436,1.0,0.0,0.0,0.0,1.0,0.0,0.0,0.0,1.0,-0.00012981100007891655,-0.0011796713806688783,0.0008854999323375524,1.2184696791468346e-07,0.0,0.0,0.0,1.2184696791468346e-07,0.0,0.0,0.0,1.2184696791468346e-07,-0.23916970193386078,-0.18507133424281955,9.758016586303711,8.999999999999999e-08,0.0,0.0,0.0,8.999999999999999e-08,0.0,0.0,0.0,8.999999999999999e-08
31219000000,5825,31219000000,base_link,0.006081791886483337,-0.012074622641744382,0.029799170596354452,-0.9994645493222466,1.0,0.0,0.0,0.0,1.0,0.0,0.0,0.0,1.0,-0.0004868822870776057,4.773167893290508e-05,-0.0009629391133785248,1.2184696791468346e-07,0.0,0.0,0.0,1.2184696791468346e-07,0.0,0.0,0.0,1.2184696791468346e-07,-0.2137969434261322,-0.1647416502237308,9.749968528747559,8.999999999999999e-08,0.0,0.0,0.0,8.999999999999999e-08,0.0,0.0,0.0,8.999999999999999e-08
31224000000,5826,31224000000,base_link,0.006097483355747296,-0.012067542300466806,0.029802710931629395,-0.9994643807348524,1.0,0.0,0.0,0.0,1.0,0.0,0.0,0.0,1.0,-0.0032731862738728523,-0.0011329473927617075,-0.0018527046777307985,1.2184696791468346e-07,0.0,0.0,0.0,1.2184696791468346e-07,0.0,0.0,0.0,1.2184696791468346e-07,-0.23830246925354004,-0.14534059166908145,9.809063911437988,8.999999999999999e-08,0.0,0.0,0.0,8.999999999999999e-08,0.0,0.0,0.0,8.999999999999999e-08
31229000000,5827,31228000000,base_link,0.006099091850708044,-0.01206863910634485,0.02980637770744987,-0.999464254294307,1.0,0.0,0.0,0.0,1.0,0.0,0.0,0.0,1.0,-0.0019313462544232607,0.0004926691763103007,-0.0011468352749943733,1.2184696791468346e-07,0.0,0.0,0.0,1.2184696791468346e-07,0.0,0.0,0.0,1.2184696791468346e-07,-0.2390870898962021,-0.102662570774554,9.83211612701416,8.999999999999999e-08,0.0,0.0,0.0,8.999999999999999e-08,0.0,0.0,0.0,8.999999999999999e-08
31235000000,5828,31235000000,base_link,0.006096724383201846,-0.0120665311053748,0.029809285839997146,-0.9994642121474584,1.0,0.0,0.0,0.0,1.0,0.0,0.0,0.0,1.0,-0.0006183718796819448,0.0007126862183213233,-0.00046188634587451826,1.2184696791468346e-07,0.0,0.0,0.0,1.2184696791468346e-07,0.0,0.0,0.0,1.2184696791468346e-07,-0.20229290425777435,-0.17281845211982608,9.789941787719727,8.999999999999999e-08,0.0,0.0,0.0,8.999999999999999e-08,0.0,0.0,0.0,8.999999999999999e-08
31240000000,5829,31240000000,base_link,0.006103550526299341,-0.012071049049971814,0.029811098154483073,-0.9994640857069129,1.0,0.0,0.0,0.0,1.0,0.0,0.0,0.0,1.0,-0.0005605693440884352,0.0031083025969564915,-0.0005843915278092031,1.2184696791468346e-07,0.0,0.0,0.0,1.2184696791468346e-07,0.0,0.0,0.0,1.2184696791468346e-07,-0.21402861177921295,-0.2081933617591846,9.78209114074707,8.999999999999999e-08,0.0,0.0,0.0,8.999999999999999e-08,0.0,0.0,0.0,8.999999999999999e-08
31244000000,5830,31244000000,base_link,0.006097983849573362,-0.012076713191284973,0.02981421702127285,-0.999463917119519,1.0,0.0,0.0,0.0,1.0,0.0,0.0,0.0,1.0,0.0007239797268994153,0.0022973339073359966,0.0003179506165906784,1.2184696791468346e-07,0.0,0.0,0.0,1.2184696791468346e-07,0.0,0.0,0.0,1.2184696791468346e-07,-0.20602889358997345,-0.17289569973945498,9.783705711364746,8.999999999999999e-08,0.0,0.0,0.0,8.999999999999999e-08,0.0,0.0,0.0,8.999999999999999e-08
31249000000,5831,31249000000,base_link,0.006095551515433127,-0.012062810987449204,0.029802120875750238,-0.9994644650285495,1.0,0.0,0.0,0.0,1.0,0.0,0.0,0.0,1.0,0.0004100273363292217,-0.0007502003572881219,0.002228136407211423,1.2184696791468346e-07,0.0,0.0,0.0,1.2184696791468346e-07,0.0,0.0,0.0,1.2184696791468346e-07,-0.1660146713256836,-0.16499866545200229,9.801363945007324,8.999999999999999e-08,0.0,0.0,0.0,8.999999999999999e-08,0.0,0.0,0.0,8.999999999999999e-08
31254000000,5832,31254000000,base_link,0.006095728663905776,-0.012067775754494888,0.02980806358139032,-0.999464254294307,1.0,0.0,0.0,0.0,1.0,0.0,0.0,0.0,1.0,0.0004297402920201421,5.3937081247568185e-05,0.0004434985457919538,1.2184696791468346e-07,0.0,0.0,0.0,1.2184696791468346e-07,0.0,0.0,0.0,1.2184696791468346e-07,-0.20594368875026703,-0.12599942088127017,9.747090339660645,8.999999999999999e-08,0.0,0.0,0.0,8.999999999999999e-08,0.0,0.0,0.0,8.999999999999999e-08
31258000000,5833,31258000000,base_link,0.006092102717844823,-0.01206216627237589,0.029810213070664393,-0.9994642964411555,1.0,0.0,0.0,0.0,1.0,0.0,0.0,0.0,1.0,0.0006302173715084791,-0.0005977516993880273,-0.0004929090500809251,1.2184696791468346e-07,0.0,0.0,0.0,1.2184696791468346e-07,0.0,0.0,0.0,1.2184696791468346e-07,-0.19537784159183502,-0.17954277992248416,9.779609680175781,8.999999999999999e-08,0.0,0.0,0.0,8.999999999999999e-08,0.0,0.0,0.0,8.999999999999999e-08
31265000000,5834,31265000000,base_link,0.00608942705150889,-0.01204788441763127,0.02980157296671959,-0.9994646757627921,1.0,0.0,0.0,0.0,1.0,0.0,0.0,0.0,1.0,0.0006388696492649615,-0.0022386189084500074,0.0016028000973165037,1.2184696791468346e-07,0.0,0.0,0.0,1.2184696791468346e-07,0.0,0.0,0.0,1.2184696791468346e-07,-0.2050929069519043,-0.17698827385902285,9.80463695526123,8.999999999999999e-08,0.0,0.0,0.0,8.999999999999999e-08,0.0,0.0,0.0,8.999999999999999e-08
31269000000,5835,31269000000,base_link,0.006088961131269491,-0.01204120644704807,0.029803638162296697,-0.9994647179096405,1.0,0.0,0.0,0.0,1.0,0.0,0.0,0.0,1.0,0.00011984840966761112,-0.002345586661249399,0.0010968875139951708,1.2184696791468346e-07,0.0,0.0,0.0,1.2184696791468346e-07,0.0,0.0,0.0,1.2184696791468346e-07,-0.22634929418563843,-0.15185528993606448,9.752887725830078,8.999999999999999e-08,0.0,0.0,0.0,8.999999999999999e-08,0.0,0.0,0.0,8.999999999999999e-08
31274000000,5836,31274000000,base_link,0.006086613420098532,-0.012031290742391374,0.029810676685998017,-0.9994646757627921,1.0,0.0,0.0,0.0,1.0,0.0,0.0,0.0,1.0,0.0005477886879816651,-0.0033488215412944555,-0.0013707855250686403,1.2184696791468346e-07,0.0,0.0,0.0,1.2184696791468346e-07,0.0,0.0,0.0,1.2184696791468346e-07,-0.3003794848918915,-0.13764728605747104,9.801880836486816,8.999999999999999e-08,0.0,0.0,0.0,8.999999999999999e-08,0.0,0.0,0.0,8.999999999999999e-08
31279000000,5837,31279000000,base_link,0.006094606833336427,-0.01202851431874572,0.029811435329271108,-0.9994646757627921,1.0,0.0,0.0,0.0,1.0,0.0,0.0,0.0,1.0,-0.001946728560142219,-0.002058770740404725,-0.0010858071036636827,1.2184696791468346e-07,0.0,0.0,0.0,1.2184696791468346e-07,0.0,0.0,0.0,1.2184696791468346e-07,-0.2315368950366974,-0.15739843249320865,9.81714916229248,8.999999999999999e-08,0.0,0.0,0.0,8.999999999999999e-08,0.0,0.0,0.0,8.999999999999999e-08
31284000000,5838,31283000000,base_link,0.0060968508237473785,-0.012022953898192567,0.029805576917328158,-0.9994648864970346,1.0,0.0,0.0,0.0,1.0,0.0,0.0,0.0,1.0,-0.001667505712248385,-0.002205254975706339,0.000914862903300673,1.2184696791468346e-07,0.0,0.0,0.0,1.2184696791468346e-07,0.0,0.0,0.0,1.2184696791468346e-07,-0.2525315582752228,-0.18520545959472537,9.827526092529297,8.999999999999999e-08,0.0,0.0,0.0,8.999999999999999e-08,0.0,0.0,0.0,8.999999999999999e-08
31290000000,5839,31290000000,base_link,0.006091640419600219,-0.012012357917059124,0.029795124498897485,-0.9994653079655198,1.0,0.0,0.0,0.0,1.0,0.0,0.0,0.0,1.0,0.0007682265131734312,-0.001748399809002876,0.002393254777416587,1.2184696791468346e-07,0.0,0.0,0.0,1.2184696791468346e-07,0.0,0.0,0.0,1.2184696791468346e-07,-0.20924364030361176,-0.12910810112953067,9.751568794250488,8.999999999999999e-08,0.0,0.0,0.0,8.999999999999999e-08,0.0,0.0,0.0,8.999999999999999e-08
31294000000,5840,31294000000,base_link,0.006092169889384638,-0.01200398649927365,0.029790572639258328,-0.9994655608466108,1.0,0.0,0.0,0.0,1.0,0.0,0.0,0.0,1.0,0.00043952115811407566,-0.0023060417734086514,0.0016819857992231848,1.2184696791468346e-07,0.0,0.0,0.0,1.2184696791468346e-07,0.0,0.0,0.0,1.2184696791468346e-07,-0.2367866188287735,-0.17120124399661898,9.805913925170898,8.999999999999999e-08,0.0,0.0,0.0,8.999999999999999e-08,0.0,0.0,0.0,8.999999999999999e-08
31299000000,5841,31299000000,base_link,0.006085749409704059,-0.012005843265513906,0.02978905535271187,-0.9994656451403078,1.0,0.0,0.0,0.0,1.0,0.0,0.0,0.0,1.0,0.0007443384965881705,-0.000811473000794649,0.0011803472880274057,1.2184696791468346e-07,0.0,0.0,0.0,1.2184696791468346e-07,0.0,0.0,0.0,1.2184696791468346e-07,-0.19638320803642273,-0.18373316526412845,9.782645225524902,8.999999999999999e-08,0.0,0.0,0.0,8.999999999999999e-08,0.0,0.0,0.0,8.999999999999999e-08
31304000000,5842,31304000000,base_link,0.006090898569211976,-0.011999682581641727,0.02978243829749566,-0.9994658558745504,1.0,0.0,0.0,0.0,1.0,0.0,0.0,0.0,1.0,-0.0004982937825843692,-0.002145491074770689,0.001257065683603287,1.2184696791468346e-07,0.0,0.0,0.0,1.2184696791468346e-07,0.0,0.0,0.0,1.2184696791468346e-07,-0.19721363484859467,-0.16674254834651828,9.815254211425781,8.999999999999999e-08,0.0,0.0,0.0,8.999999999999999e-08,0.0,0.0,0.0,8.999999999999999e-08
31309000000,5843,31309000000,base_link,0.006093895934540059,-0.011988661510028382,0.029777127794583358,-0.9994661087556415,1.0,0.0,0.0,0.0,1.0,0.0,0.0,0.0,1.0,-0.0006290219025686383,-0.0036344989202916618,0.0020028995350003247,1.2184696791468346e-07,0.0,0.0,0.0,1.2184696791468346e-07,0.0,0.0,0.0,1.2184696791468346e-07,-0.18183626234531403,-0.19504250586032748,9.794031143188477,8.999999999999999e-08,0.0,0.0,0.0,8.999999999999999e-08,0.0,0.0,0.0,8.999999999999999e-08
31315000000,5844,31315000000,base_link,0.006083081975174476,-0.011975412253072278,0.029761491313785804,-0.9994668252520662,1.0,0.0,0.0,0.0,1.0,0.0,0.0,0.0,1.0,0.001686505856923759,-0.002518075285479426,0.002804365241900087,1.2184696791468346e-07,0.0,0.0,0.0,1.2184696791468346e-07,0.0,0.0,0.0,1.2184696791468346e-07,-0.2031787633895874,-0.1626480519771564,9.76703929901123,8.999999999999999e-08,0.0,0.0,0.0,8.999999999999999e-08,0.0,0.0,0.0,8.999999999999999e-08
31320000000,5845,31320000000,base_link,0.006082143549250599,-0.01196780540546057,0.029755970076630833,-0.9994670359863087,1.0,0.0,0.0,0.0,1.0,0.0,0.0,0.0,1.0,0.0007049289415590465,-0.001056829001754522,0.002026504138484597,1.2184696791468346e-07,0.0,0.0,0.0,1.2184696791468346e-07,0.0,0.0,0.0,1.2184696791468346e-07,-0.22072583436965942,-0.20459537208080172,9.784866333007812,8.999999999999999e-08,0.0,0.0,0.0,8.999999999999999e-08,0.0,0.0,0.0,8.999999999999999e-08
31324000000,5846,31324000000,base_link,0.006084490931149304,-0.011971204482938523,0.029754747818024063,-0.9994669938394602,1.0,0.0,0.0,0.0,1.0,0.0,0.0,0.0,1.0,0.0007951557054184377,0.00013032509014010438,0.0006404867745004594,1.2184696791468346e-07,0.0,0.0,0.0,1.2184696791468346e-07,0.0,0.0,0.0,1.2184696791468346e-07,-0.22376838326454163,-0.10439325869083284,9.849624633789062,8.999999999999999e-08,0.0,0.0,0.0,8.999999999999999e-08,0.0,0.0,0.0,8.999999999999999e-08
31329000000,5847,31329000000,base_link,0.006081401369590104,-0.011965569646855969,0.029747709294322744,-0.9994673731610968,1.0,0.0,0.0,0.0,1.0,0.0,0.0,0.0,1.0,0.00018924020696431398,0.00014972547069191933,2.6723369956016524e-05,1.2184696791468346e-07,0.0,0.0,0.0,1.2184696791468346e-07,0.0,0.0,0.0,1.2184696791468346e-07,-0.16766171157360077,-0.15851175785064578,9.821078300476074,8.999999999999999e-08,0.0,0.0,0.0,8.999999999999999e-08,0.0,0.0,0.0,8.999999999999999e-08
31334000000,5848,31334000000,base_link,0.00608617021964466,-0.011969639781187556,0.029751418216991676,-0.9994671202800056,1.0,0.0,0.0,0.0,1.0,0.0,0.0,0.0,1.0,-0.001579991658218205,0.0011287503875792027,-0.0008482760167680682,1.2184696791468346e-07,0.0,0.0,0.0,1.2184696791468346e-07,0.0,0.0,0.0,1.2184696791468346e-07,-0.2302716076374054,-0.14560355246066928,9.831768035888672,8.999999999999999e-08,0.0,0.0,0.0,8.999999999999999e-08,0.0,0.0,0.0,8.999999999999999e-08
31338000000,5849,31338000000,base_link,0.006087223890857433,-0.011971026675921368,0.029750027370990806,-0.9994671624268542,1.0,0.0,0.0,0.0,1.0,0.0,0.0,0.0,1.0,-0.001690320554189384,0.0015156208537518976,-0.0010588428704068067,1.2184696791468346e-07,0.0,0.0,0.0,1.2184696791468346e-07,0.0,0.0,0.0,1.2184696791468346e-07,-0.24267160892486572,-0.10835396498441575,9.813628196716309,8.999999999999999e-08,0.0,0.0,0.0,8.999999999999999e-08,0.0,0.0,0.0,8.999999999999999e-08
31345000000,5850,31345000000,base_link,0.006086737885010541,-0.01196366414832212,0.029740502183227324,-0.9994675838953394,1.0,0.0,0.0,0.0,1.0,0.0,0.0,0.0,1.0,-0.00047328684013336897,-0.00047539779916405667,0.0007596345967613162,1.2184696791468346e-07,0.0,0.0,0.0,1.2184696791468346e-07,0.0,0.0,0.0,1.2184696791468346e-07,-0.23979246616363525,-0.1589508354663837,9.827021598815918,8.999999999999999e-08,0.0,0.0,0.0,8.999999999999999e-08,0.0,0.0,0.0,8.999999999999999e-08
31349000000,5851,31349000000,base_link,0.0060898264587529805,-0.011962217984582591,0.029733969421708195,-0.9994677103358849,1.0,0.0,0.0,0.0,1.0,0.0,0.0,0.0,1.0,-7.949676364660263e-05,0.00022728927433490778,0.001929877558723092,1.2184696791468346e-07,0.0,0.0,0.0,1.2184696791468346e-07,0.0,0.0,0.0,1.2184696791468346e-07,-0.20871983468532562,-0.1735207885503757,9.817740440368652,8.999999999999999e-08,0.0,0.0,0.0,8.999999999999999e-08,0.0,0.0,0.0,8.999999999999999e-08
31354000000,5852,31354000000,base_link,0.006088572260737527,-0.011958850517241021,0.02971829079406213,-0.999468300391764,1.0,0.0,0.0,0.0,1.0,0.0,0.0,0.0,1.0,-0.0002588006900623441,-0.00035685533657669967,0.004255796317011118,1.2184696791468346e-07,0.0,0.0,0.0,1.2184696791468346e-07,0.0,0.0,0.0,1.2184696791468346e-07,-0.2220235913991928,-0.16368120908737063,9.799755096435547,8.999999999999999e-08,0.0,0.0,0.0,8.999999999999999e-08,0.0,0.0,0.0,8.999999999999999e-08
31359000000,5853,31359000000,base_link,0.006091544601374307,-0.011962010543062576,0.029719934521154068,-0.9994681739512186,1.0,0.0,0.0,0.0,1.0,0.0,0.0,0.0,1.0,-0.001063520205207169,0.0012598368339240553,0.0009028432541526853,1.2184696791468346e-07,0.0,0.0,0.0,1.2184696791468346e-07,0.0,0.0,0.0,1.2184696791468346e-07,-0.2650788724422455,-0.16988438367843509,9.77343463897705,8.999999999999999e-08,0.0,0.0,0.0,8.999999999999999e-08,0.0,0.0,0.0,8.999999999999999e-08
31363000000,5854,31363000000,base_link,0.006090971009107855,-0.011965842613554527,0.02971934446527491,-0.9994680896575214,1.0,0.0,0.0,0.0,1.0,0.0,0.0,0.0,1.0,-0.0010854479623958468,0.0022654091008007526,-0.0009059230214916173,1.2184696791468346e-07,0.0,0.0,0.0,1.2184696791468346e-07,0.0,0.0,0.0,1.2184696791468346e-07,-0.214263454079628,-0.15115785598754763,9.809597969055176,8.999999999999999e-08,0.0,0.0,0.0,8.999999999999999e-08,0.0,0.0,0.0,8.999999999999999e-08
31370000000,5855,31370000000,base_link,0.00609803159405019,-0.011968382290449562,0.029723727737519967,-0.9994679210701274,1.0,0.0,0.0,0.0,1.0,0.0,0.0,0.0,1.0,-0.001459105289541185,0.0015089544467628,-0.0025565559044480324,1.2184696791468346e-07,0.0,0.0,0.0,1.2184696791468346e-07,0.0,0.0,0.0,1.2184696791468346e-07,-0.19744424521923065,-0.1622276008129108,9.83619213104248,8.999999999999999e-08,0.0,0.0,0.0,8.999999999999999e-08,0.0,0.0,0.0,8.999999999999999e-08
31375000000,5856,31374000000,base_link,0.00609442968486378,-0.011959411267889568,0.029718248647213563,-0.9994682582449155,1.0,0.0,0.0,0.0,1.0,0.0,0.0,0.0,1.0,1.5061232261359692e-05,-0.0009054243564605714,-0.0013154749758541582,1.2184696791468346e-07,0.0,0.0,0.0,1.2184696791468346e-07,0.0,0.0,0.0,1.2184696791468346e-07,-0.22618229687213898,-0.1969839334487903,9.811995506286621,8.999999999999999e-08,0.0,0.0,0.0,8.999999999999999e-08,0.0,0.0,0.0,8.999999999999999e-08
31379000000,5857,31379000000,base_link,0.0060859858271824245,-0.011963703660992598,0.029704930243084182,-0.9994685954197036,1.0,0.0,0.0,0.0,1.0,0.0,0.0,0.0,1.0,0.002969917608425021,0.0010067340917885306,0.0024229963310062885,1.2184696791468346e-07,0.0,0.0,0.0,1.2184696791468346e-07,0.0,0.0,0.0,1.2184696791468346e-07,-0.23342156410217285,-0.1943638026714313,9.785636901855469,8.999999999999999e-08,0.0,0.0,0.0,8.999999999999999e-08,0.0,0.0,0.0,8.999999999999999e-08
31384000000,5858,31384000000,base_link,0.006070797156650311,-0.01196494699302367,0.029699282565383733,-0.9994688483007947,1.0,0.0,0.0,0.0,1.0,0.0,0.0,0.0,1.0,0.005128550808876753,0.0011686296202242377,0.0016089305281639097,1.2184696791468346e-07,0.0,0.0,0.0,1.2184696791468346e-07,0.0,0.0,0.0,1.2184696791468346e-07,-0.2544032037258148,-0.17617131769657016,9.819877624511719,8.999999999999999e-08,0.0,0.0,0.0,8.999999999999999e-08,0.0,0.0,0.0,8.999999999999999e-08
31389000000,5859,31389000000,base_link,0.006066657545873133,-0.011956725723386016,0.029705140977326683,-0.9994688061539461,1.0,0.0,0.0,0.0,1.0,0.0,0.0,0.0,1.0,0.003921929281204939,-0.00033305119723081605,-0.0014504529535770416,1.2184696791468346e-07,0.0,0.0,0.0,1.2184696791468346e-07,0.0,0.0,0.0,1.2184696791468346e-07,-0.24911417067050934,-0.1672998070716846,9.837424278259277,8.999999999999999e-08,0.0,0.0,0.0,8.999999999999999e-08,0.0,0.0,0.0,8.999999999999999e-08
31393000000,5860,31393000000,base_link,0.006069381944502658,-0.011951242023268043,0.029707543347691823,-0.9994687640070976,1.0,0.0,0.0,0.0,1.0,0.0,0.0,0.0,1.0,0.0017651268281042576,-0.0014714584685862069,-0.003060702234506607,1.2184696791468346e-07,0.0,0.0,0.0,1.2184696791468346e-07,0.0,0.0,0.0,1.2184696791468346e-07,-0.23193533718585968,-0.15580786764621615,9.802430152893066,8.999999999999999e-08,0.0,0.0,0.0,8.999999999999999e-08,0.0,0.0,0.0,8.999999999999999e-08
31400000000,5861,31400000000,base_link,0.00607385840079567,-0.011953894969818451,0.029711167976663733,-0.9994685954197036,1.0,0.0,0.0,0.0,1.0,0.0,0.0,0.0,1.0,-0.001034945365972817,0.0005042217671871181,-0.003983066882938147,1.2184696791468346e-07,0.0,0.0,0.0,1.2184696791468346e-07,0.0,0.0,0.0,1.2184696791468346e-07,-0.21859224140644073,-0.14744220674037814,9.799185752868652,8.999999999999999e-08,0.0,0.0,0.0,8.999999999999999e-08,0.0,0.0,0.0,8.999999999999999e-08
31404000000,5862,31404000000,base_link,0.0060816917877181235,-0.011950946666056212,0.029714202549756596,-0.9994685111260067,1.0,0.0,0.0,0.0,1.0,0.0,0.0,0.0,1.0,-0.0009802611311897635,7.620593532919855e-05,-0.002351090544834733,1.2184696791468346e-07,0.0,0.0,0.0,1.2184696791468346e-07,0.0,0.0,0.0,1.2184696791468346e-07,-0.2217000126838684,-0.08712217956781267,9.810249328613281,8.999999999999999e-08,0.0,0.0,0.0,8.999999999999999e-08,0.0,0.0,0.0,8.999999999999999e-08
31409000000,5863,31409000000,base_link,0.006087242330103655,-0.011946173206190099,0.029709903571208396,-0.9994686797134007,1.0,0.0,0.0,0.0,1.0,0.0,0.0,0.0,1.0,2.2622989490628242e-06,-5.4445117712020996e-05,-0.0009692119201645255,1.2184696791468346e-07,0.0,0.0,0.0,1.2184696791468346e-07,0.0,0.0,0.0,1.2184696791468346e-07,-0.20878450572490692,-0.11796289682388186,9.801015853881836,8.999999999999999e-08,0.0,0.0,0.0,8.999999999999999e-08,0.0,0.0,0.0,8.999999999999999e-08
31414000000,5864,31414000000,base_link,0.006094160010887761,-0.011944093193361637,0.02971403396236255,-0.9994685111260067,1.0,0.0,0.0,0.0,1.0,0.0,0.0,0.0,1.0,-0.001422458910383284,-0.00027105119079351447,-0.0016896987799555063,1.2184696791468346e-07,0.0,0.0,0.0,1.2184696791468346e-07,0.0,0.0,0.0,1.2184696791468346e-07,-0.24381329119205475,-0.1555793285369861,9.813868522644043,8.999999999999999e-08,0.0,0.0,0.0,8.999999999999999e-08,0.0,0.0,0.0,8.999999999999999e-08
31419000000,5865,31418000000,base_link,0.006099260767374341,-0.011936821874176745,0.029718459381456175,-0.9994684689791581,1.0,0.0,0.0,0.0,1.0,0.0,0.0,0.0,1.0,-0.0014742849161848426,-0.001200187020003796,-0.002756986767053604,1.2184696791468346e-07,0.0,0.0,0.0,1.2184696791468346e-07,0.0,0.0,0.0,1.2184696791468346e-07,-0.1899360716342926,-0.14986126124858737,9.835831642150879,8.999999999999999e-08,0.0,0.0,0.0,8.999999999999999e-08,0.0,0.0,0.0,8.999999999999999e-08
31425000000,5866,31425000000,base_link,0.006103618027111408,-0.011935330600138417,0.02972499214297536,-0.9994682582449155,1.0,0.0,0.0,0.0,1.0,0.0,0.0,0.0,1.0,-0.0004130627494305372,0.0006751711480319497,-0.0029152941424399614,1.2184696791468346e-07,0.0,0.0,0.0,1.2184696791468346e-07,0.0,0.0,0.0,1.2184696791468346e-07,-0.22404880821704865,-0.13614515960216403,9.81624984741211,8.999999999999999e-08,0.0,0.0,0.0,8.999999999999999e-08,0.0,0.0,0.0,8.999999999999999e-08
31430000000,5867,31430000000,base_link,0.0061072940225549675,-0.011933909461090192,0.029734138009102185,-0.9994679632169758,1.0,0.0,0.0,0.0,1.0,0.0,0.0,0.0,1.0,0.0002028337912634015,-7.06217251718049e-05,-0.003847682848572731,1.2184696791468346e-07,0.0,0.0,0.0,1.2184696791468346e-07,0.0,0.0,0.0,1.2184696791468346e-07,-0.1866316795349121,-0.13451926410198092,9.785921096801758,8.999999999999999e-08,0.0,0.0,0.0,8.999999999999999e-08,0.0,0.0,0.0,8.999999999999999e-08
31434000000,5868,31434000000,base_link,0.006111611769621556,-0.011932705312457345,0.02972908038728095,-0.999468047510673,1.0,0.0,0.0,0.0,1.0,0.0,0.0,0.0,1.0,-0.0002678587334230542,5.59678301215169e-05,-0.002331820782274008,1.2184696791468346e-07,0.0,0.0,0.0,1.2184696791468346e-07,0.0,0.0,0.0,1.2184696791468346e-07,-0.22572587430477142,-0.19086097180843234,9.822664260864258,8.999999999999999e-08,0.0,0.0,0.0,8.999999999999999e-08,0.0,0.0,0.0,8.999999999999999e-08
31439000000,5869,31439000000,base_link,0.006116606500442352,-0.011929709922762785,0.02973489665237533,-0.999467963216976,1.0,0.0,0.0,0.0,1.0,0.0,0.0,0.0,1.0,-0.00012632296420633793,5.356594920158353e-05,-0.0027259874623268843,1.2184696791468346e-07,0.0,0.0,0.0,1.2184696791468346e-07,0.0,0.0,0.0,1.2184696791468346e-07,-0.18868900835514069,-0.11788024008273959,9.77213191986084,8.999999999999999e-08,0.0,0.0,0.0,8.999999999999999e-08,0.0,0.0,0.0,8.999999999999999e-08
31444000000,5870,31444000000,base_link,0.006112875516532376,-0.011927981572701585,0.029735023092920865,-0.9994680053638245,1.0,0.0,0.0,0.0,1.0,0.0,0.0,0.0,1.0,0.0014642353635281324,-0.0004356014542281632,-0.0035559488460421562,1.2184696791468346e-07,0.0,0.0,0.0,1.2184696791468346e-07,0.0,0.0,0.0,1.2184696791468346e-07,-0.19823047518730164,-0.21890541911125064,9.79197883605957,8.999999999999999e-08,0.0,0.0,0.0,8.999999999999999e-08,0.0,0.0,0.0,8.999999999999999e-08
31448000000,5871,31448000000,base_link,0.006111444170044274,-0.011922919670340976,0.029744548280684346,-0.9994677524827333,1.0,0.0,0.0,0.0,1.0,0.0,0.0,0.0,1.0,0.0004037062171846628,-0.0002551791258156303,-0.0026442219968885183,1.2184696791468346e-07,0.0,0.0,0.0,1.2184696791468346e-07,0.0,0.0,0.0,1.2184696791468346e-07,-0.21955837309360504,-0.17523610591888308,9.805142402648926,8.999999999999999e-08,0.0,0.0,0.0,8.999999999999999e-08,0.0,0.0,0.0,8.999999999999999e-08
31455000000,5872,31455000000,base_link,0.006123985162382043,-0.01191610011268856,0.029727015191703843,-0.9994683425386126,1.0,0.0,0.0,0.0,1.0,0.0,0.0,0.0,1.0,0.00021428719628602266,-0.0009296056814491748,0.0009301802492700518,1.2184696791468346e-07,0.0,0.0,0.0,1.2184696791468346e-07,0.0,0.0,0.0,1.2184696791468346e-07,-0.19230379164218903,-0.1607021689414966,9.795522689819336,8.999999999999999e-08,0.0,0.0,0.0,8.999999999999999e-08,0.0,0.0,0.0,8.999999999999999e-08
31459000000,5873,31459000000,base_link,0.0061212548368519476,-0.011913612131537401,0.029717785031879995,-0.9994686375665521,1.0,0.0,0.0,0.0,1.0,0.0,0.0,0.0,1.0,0.0018610553815960884,-0.0011148857884109018,0.0020846703555434942,1.2184696791468346e-07,0.0,0.0,0.0,1.2184696791468346e-07,0.0,0.0,0.0,1.2184696791468346e-07,-0.2066519558429718,-0.16423049569129824,9.783616065979004,8.999999999999999e-08,0.0,0.0,0.0,8.999999999999999e-08,0.0,0.0,0.0,8.999999999999999e-08
31464000000,5874,31464000000,base_link,0.006117161324190328,-0.011914543313471691,0.029711589445148845,-0.9994688483007947,1.0,0.0,0.0,0.0,1.0,0.0,0.0,0.0,1.0,0.0030210292898118496,0.0006052604876458647,0.002062329789623618,1.2184696791468346e-07,0.0,0.0,0.0,1.2184696791468346e-07,0.0,0.0,0.0,1.2184696791468346e-07,-0.19560572504997253,-0.20087483525276065,9.82119083404541,8.999999999999999e-08,0.0,0.0,0.0,8.999999999999999e-08,0.0,0.0,0.0,8.999999999999999e-08
31469000000,5875,31469000000,base_link,0.0061243141053637816,-0.011910800475760569,0.029698566068959042,-0.9994692276224313,1.0,0.0,0.0,0.0,1.0,0.0,0.0,0.0,1.0,0.0007419869070872664,0.00026565557345747964,0.0013313272502273321,1.2184696791468346e-07,0.0,0.0,0.0,1.2184696791468346e-07,0.0,0.0,0.0,1.2184696791468346e-07,-0.24591384828090668,-0.1541595607995975,9.787158012390137,8.999999999999999e-08,0.0,0.0,0.0,8.999999999999999e-08,0.0,0.0,0.0,8.999999999999999e-08
31473000000,5876,31473000000,base_link,0.006121421448612467,-0.011910329287165108,0.029691063929924044,-0.9994694805035222,1.0,0.0,0.0,0.0,1.0,0.0,0.0,0.0,1.0,0.00011774548329412937,0.00019452394917607326,0.001565034268423915,1.2184696791468346e-07,0.0,0.0,0.0,1.2184696791468346e-07,0.0,0.0,0.0,1.2184696791468346e-07,-0.1956830620765686,-0.11481799185275912,9.79110336303711,8.999999999999999e-08,0.0,0.0,0.0,8.999999999999999e-08,0.0,0.0,0.0,8.999999999999999e-08
31480000000,5877,31480000000,base_link,0.006120346703975439,-0.011912315457401184,0.029686427776587865,-0.9994695647972194,1.0,0.0,0.0,0.0,1.0,0.0,0.0,0.0,1.0,0.0018333734478801489,0.0018760929815471172,0.0005905175930820403,1.2184696791468346e-07,0.0,0.0,0.0,1.2184696791468346e-07,0.0,0.0,0.0,1.2184696791468346e-07,-0.2529602646827698,-0.16091488301753878,9.776511192321777,8.999999999999999e-08,0.0,0.0,0.0,8.999999999999999e-08,0.0,0.0,0.0,8.999999999999999e-08
31484000000,5878,31484000000,base_link,0.006117211373572933,-0.011915337518148316,0.029687902916285813,-0.9994695226503709,1.0,0.0,0.0,0.0,1.0,0.0,0.0,0.0,1.0,0.0024731021840125322,0.0016990019939839838,-0.0020386353135108948,1.2184696791468346e-07,0.0,0.0,0.0,1.2184696791468346e-07,0.0,0.0,0.0,1.2184696791468346e-07,-0.23297470808029175,-0.19754762947559237,9.847126007080078,8.999999999999999e-08,0.0,0.0,0.0,8.999999999999999e-08,0.0,0.0,0.0,8.999999999999999e-08
31489000000,5879,31489000000,base_link,0.006115780027084833,-0.011909061259714988,0.029690389580347865,-0.9994694805035222,1.0,0.0,0.0,0.0,1.0,0.0,0.0,0.0,1.0,0.0021522522438317537,-0.0001828228123486045,-0.002485850127413869,1.2184696791468346e-07,0.0,0.0,0.0,1.2184696791468346e-07,0.0,0.0,0.0,1.2184696791468346e-07,-0.23233716189861298,-0.15692177414893985,9.7947416305542,8.999999999999999e-08,0.0,0.0,0.0,8.999999999999999e-08,0.0,0.0,0.0,8.999999999999999e-08
31494000000,5880,31494000000,base_link,0.006114140909804464,-0.01190656340039621,0.02969536290847219,-0.9994693962098253,1.0,0.0,0.0,0.0,1.0,0.0,0.0,0.0,1.0,0.0018598821479827166,0.0002862308174371716,-0.0026050980668514967,1.2184696791468346e-07,0.0,0.0,0.0,1.2184696791468346e-07,0.0,0.0,0.0,1.2184696791468346e-07,-0.25623446702957153,-0.23262712359428286,9.80041217803955,8.999999999999999e-08,0.0,0.0,0.0,8.999999999999999e-08,0.0,0.0,0.0,8.999999999999999e-08
31498000000,5881,31498000000,base_link,0.006117720757749859,-0.011915898927341372,0.0296876921820432,-0.9994694805035222,1.0,0.0,0.0,0.0,1.0,0.0,0.0,0.0,1.0,0.0005923478165641427,0.0024807555601000786,-0.0007178051164373759,1.2184696791468346e-07,0.0,0.0,0.0,1.2184696791468346e-07,0.0,0.0,0.0,1.2184696791468346e-07,-0.2653515040874481,-0.15381598472595095,9.825939178466797,8.999999999999999e-08,0.0,0.0,0.0,8.999999999999999e-08,0.0,0.0,0.0,8.999999999999999e-08
31505000000,5882,31505000000,base_link,0.006129778378418768,-0.011920329944063333,0.029677071176218373,-0.9994696490909164,1.0,0.0,0.0,0.0,1.0,0.0,0.0,0.0,1.0,-0.0018259332282468677,0.0022246702574193478,0.0010773593094199894,1.2184696791468346e-07,0.0,0.0,0.0,1.2184696791468346e-07,0.0,0.0,0.0,1.2184696791468346e-07,-0.24728873372077942,-0.16219568252563357,9.798879623413086,8.999999999999999e-08,0.0,0.0,0.0,8.999999999999999e-08,0.0,0.0,0.0,8.999999999999999e-08
31509000000,5883,31509000000,base_link,0.006124013150523633,-0.01191654627659272,0.029682718853918877,-0.9994695647972194,1.0,0.0,0.0,0.0,1.0,0.0,0.0,0.0,1.0,0.000592268886975944,0.000631178729236126,-0.0002988483756780625,1.2184696791468346e-07,0.0,0.0,0.0,1.2184696791468346e-07,0.0,0.0,0.0,1.2184696791468346e-07,-0.24332670867443085,-0.1557745486497867,9.818564414978027,8.999999999999999e-08,0.0,0.0,0.0,8.999999999999999e-08,0.0,0.0,0.0,8.999999999999999e-08
31514000000,5884,31514000000,base_link,0.006117143214216357,-0.01191344453196012,0.029688492972164915,-0.9994695226503708,1.0,0.0,0.0,0.0,1.0,0.0,0.0,0.0,1.0,0.00323567446321249,-0.000647579319775105,-0.003577664727345109,1.2184696791468346e-07,0.0,0.0,0.0,1.2184696791468346e-07,0.0,0.0,0.0,1.2184696791468346e-07,-0.1852753907442093,-0.16834849119186282,9.789251327514648,8.999999999999999e-08,0.0,0.0,0.0,8.999999999999999e-08,0.0,0.0,0.0,8.999999999999999e-08
31519000000,5885,31519000000,base_link,0.006123990101465854,-0.01192094337827252,0.02968773432889177,-0.9994693540629769,1.0,0.0,0.0,0.0,1.0,0.0,0.0,0.0,1.0,0.0010557739296928048,0.002283136826008558,-0.002040187362581492,1.2184696791468346e-07,0.0,0.0,0.0,1.2184696791468346e-07,0.0,0.0,0.0,1.2184696791468346e-07,-0.25217297673225403,-0.1885020285844791,9.80540657043457,8.999999999999999e-08,0.0,0.0,0.0,8.999999999999999e-08,0.0,0.0,0.0,8.999999999999999e-08
31523000000,5886,31523000000,base_link,0.006122753025607607,-0.011924071793957691,0.02968314032240399,-0.9994694805035224,1.0,0.0,0.0,0.0,1.0,0.0,0.0,0.0,1.0,0.0004552926402539015,0.0022910945117473602,2.5783025193959193e-05,1.2184696791468346e-07,0.0,0.0,0.0,1.2184696791468346e-07,0.0,0.0,0.0,1.2184696791468346e-07,-0.20136231184005737,-0.14160032570361972,9.82574462890625,8.999999999999999e-08,0.0,0.0,0.0,8.999999999999999e-08,0.0,0.0,0.0,8.999999999999999e-08
31528000000,5887,31528000000,base_link,0.006129462606327191,-0.01192571255759933,0.029673699428337585,-0.9994697333846134,1.0,0.0,0.0,0.0,1.0,0.0,0.0,0.0,1.0,-0.000985669787041843,0.0021125455386936665,0.0014732403215020893,1.2184696791468346e-07,0.0,0.0,0.0,1.2184696791468346e-07,0.0,0.0,0.0,1.2184696791468346e-07,-0.20765900611877441,-0.16238421201705813,9.801860809326172,8.999999999999999e-08,0.0,0.0,0.0,8.999999999999999e-08,0.0,0.0,0.0,8.999999999999999e-08
31534000000,5888,31534000000,base_link,0.0061364444952008235,-0.01192804380515759,0.029681875916948652,-0.9994693962098253,1.0,0.0,0.0,0.0,1.0,0.0,0.0,0.0,1.0,-0.001206073327921331,0.0012117219157516954,-0.0023848076816648245,1.2184696791468346e-07,0.0,0.0,0.0,1.2184696791468346e-07,0.0,0.0,0.0,1.2184696791468346e-07,-0.2707589566707611,-0.13585931062698245,9.817669868469238,8.999999999999999e-08,0.0,0.0,0.0,8.999999999999999e-08,0.0,0.0,0.0,8.999999999999999e-08
31539000000,5889,31539000000,base_link,0.006136150455078009,-0.01193295160810333,0.0296824238259793,-0.9994693540629769,1.0,0.0,0.0,0.0,1.0,0.0,0.0,0.0,1.0,0.0003422686131671071,0.0007448019459843632,-0.0025378663558512926,1.2184696791468346e-07,0.0,0.0,0.0,1.2184696791468346e-07,0.0,0.0,0.0,1.2184696791468346e-07,-0.22825470566749573,-0.11437474936246751,9.80669116973877,8.999999999999999e-08,0.0,0.0,0.0,8.999999999999999e-08,0.0,0.0,0.0,8.999999999999999e-08
31544000000,5890,31544000000,base_link,0.006136511996012892,-0.011931207123701685,0.029677661232097585,-0.9994694805035222,1.0,0.0,0.0,0.0,1.0,0.0,0.0,0.0,1.0,0.0006056209676899016,0.0013916213065385818,4.099169746041281e-05,1.2184696791468346e-07,0.0,0.0,0.0,1.2184696791468346e-07,0.0,0.0,0.0,1.2184696791468346e-07,-0.23605568706989288,-0.18358957767486453,9.820412635803223,8.999999999999999e-08,0.0,0.0,0.0,8.999999999999999e-08,0.0,0.0,0.0,8.999999999999999e-08
31548000000,5891,31548000000,base_link,0.006138023355658712,-0.011932875216940406,0.02967576462391458,-0.9994695226503708,1.0,0.0,0.0,0.0,1.0,0.0,0.0,0.0,1.0,0.0007142811664380133,0.0007260907441377639,-0.0010456019081175327,1.2184696791468346e-07,0.0,0.0,0.0,1.2184696791468346e-07,0.0,0.0,0.0,1.2184696791468346e-07,-0.21928682923316956,-0.14484608173370242,9.796481132507324,8.999999999999999e-08,0.0,0.0,0.0,8.999999999999999e-08,0.0,0.0,0.0,8.999999999999999e-08
31555000000,5892,31555000000,base_link,0.006136415189970217,-0.011934892997312863,0.029669779771426097,-0.9994696912377649,1.0,0.0,0.0,0.0,1.0,0.0,0.0,0.0,1.0,0.0007771541713736951,0.0014409017749130726,0.0004844058421440421,1.2184696791468346e-07,0.0,0.0,0.0,1.2184696791468346e-07,0.0,0.0,0.0,1.2184696791468346e-07,-0.23099064826965332,-0.21997416019439578,9.768290519714355,8.999999999999999e-08,0.0,0.0,0.0,8.999999999999999e-08,0.0,0.0,0.0,8.999999999999999e-08
31559000000,5893,31559000000,base_link,0.0061341484797737406,-0.011936703994709816,0.029672730050821883,-0.9994696069440678,1.0,0.0,0.0,0.0,1.0,0.0,0.0,0.0,1.0,0.0015142076881602407,0.001830564346164465,-9.835124365054094e-05,1.2184696791468346e-07,0.0,0.0,0.0,1.2184696791468346e-07,0.0,0.0,0.0,1.2184696791468346e-07,-0.20356234908103943,-0.16310139000415683,9.811532020568848,8.999999999999999e-08,0.0,0.0,0.0,8.999999999999999e-08,0.0,0.0,0.0,8.999999999999999e-08
31564000000,5894,31564000000,base_link,0.006136114235130069,-0.011936935143832117,0.029674373777913765,-0.9994695647972194,1.0,0.0,0.0,0.0,1.0,0.0,0.0,0.0,1.0,0.00026992138009518385,0.001464784611016512,-0.0007763695903122427,1.2184696791468346e-07,0.0,0.0,0.0,1.2184696791468346e-07,0.0,0.0,0.0,1.2184696791468346e-07,-0.2445099949836731,-0.1292320042848575,9.807523727416992,8.999999999999999e-08,0.0,0.0,0.0,8.999999999999999e-08,0.0,0.0,0.0,8.999999999999999e-08
31569000000,5895,31569000000,base_link,0.006133900208494232,-0.011927848546710973,0.029664975030695817,-0.9994699441188559,1.0,0.0,0.0,0.0,1.0,0.0,0.0,0.0,1.0,0.0009562309714965522,-0.0009491923265159129,0.000721909513231367,1.2184696791468346e-07,0.0,0.0,0.0,1.2184696791468346e-07,0.0,0.0,0.0,1.2184696791468346e-07,-0.2180744707584381,-0.19420403242111087,9.804555892944336,8.999999999999999e-08,0.0,0.0,0.0,8.999999999999999e-08,0.0,0.0,0.0,8.999999999999999e-08
31574000000,5896,31573000000,base_link,0.006125476107148117,-0.011921386907998646,0.0296592430592984,-0.9994701969999471,1.0,0.0,0.0,0.0,1.0,0.0,0.0,0.0,1.0,0.0029171262867748737,-0.002814644016325474,0.0011237375438213353,1.2184696791468346e-07,0.0,0.0,0.0,1.2184696791468346e-07,0.0,0.0,0.0,1.2184696791468346e-07,-0.19254453480243683,-0.13194839656352877,9.818320274353027,8.999999999999999e-08,0.0,0.0,0.0,8.999999999999999e-08,0.0,0.0,0.0,8.999999999999999e-08
31578000000,5897,31578000000,base_link,0.006123174164820462,-0.011922025366899135,0.029656039898811548,-0.999470365587341,1.0,0.0,0.0,0.0,1.0,0.0,0.0,0.0,1.0,0.002722587436437607,-0.0010455669835209844,0.0013204475399106743,1.2184696791468346e-07,0.0,0.0,0.0,1.2184696791468346e-07,0.0,0.0,0.0,1.2184696791468346e-07,-0.22680513560771942,-0.12135152518749118,9.768289566040039,8.999999999999999e-08,0.0,0.0,0.0,8.999999999999999e-08,0.0,0.0,0.0,8.999999999999999e-08
31584000000,5898,31584000000,base_link,0.006124633170177898,-0.01192355615360794,0.02966021243681416,-0.9994702391467956,1.0,0.0,0.0,0.0,1.0,0.0,0.0,0.0,1.0,0.0006690120208077133,0.0009236331097781657,-0.0007046624086797238,1.2184696791468346e-07,0.0,0.0,0.0,1.2184696791468346e-07,0.0,0.0,0.0,1.2184696791468346e-07,-0.2378351390361786,-0.1534910500049579,9.825669288635254,8.999999999999999e-08,0.0,0.0,0.0,8.999999999999999e-08,0.0,0.0,0.0,8.999999999999999e-08
31589000000,5899,31589000000,base_link,0.006131995697777146,-0.01193369247067481,0.029651361598626746,-0.9994702391467956,1.0,0.0,0.0,0.0,1.0,0.0,0.0,0.0,1.0,-0.0009361981647089124,0.0025032893754541874,0.00014841480879113048,1.2184696791468346e-07,0.0,0.0,0.0,1.2184696791468346e-07,0.0,0.0,0.0,1.2184696791468346e-07,-0.28952839970588684,-0.17311009764671206,9.77519702911377,8.999999999999999e-08,0.0,0.0,0.0,8.999999999999999e-08,0.0,0.0,0.0,8.999999999999999e-08
31594000000,5900,31594000000,base_link,0.006131733267790714,-0.011929705971495737,0.029650940130141634,-0.9994703234404926,1.0,0.0,0.0,0.0,1.0,0.0,0.0,0.0,1.0,-0.0008823246462270617,0.0011989702470600605,0.0002043665735982357,1.2184696791468346e-07,0.0,0.0,0.0,1.2184696791468346e-07,0.0,0.0,0.0,1.2184696791468346e-07,-0.1750318855047226,-0.12256022542714953,9.799851417541504,8.999999999999999e-08,0.0,0.0,0.0,8.999999999999999e-08,0.0,0.0,0.0,8.999999999999999e-08
31599000000,5901,31598000000,base_link,0.0061268863802119615,-0.011933778410733103,0.02964322725686419,-0.9994705341747351,1.0,0.0,0.0,0.0,1.0,0.0,0.0,0.0,1.0,0.0010349503718316555,0.0014903885312378409,0.0009641998331062494,1.2184696791468346e-07,0.0,0.0,0.0,1.2184696791468346e-07,0.0,0.0,0.0,1.2184696791468346e-07,-0.2609005570411682,-0.16014879941940188,9.847431182861328,8.999999999999999e-08,0.0,0.0,0.0,8.999999999999999e-08,0.0,0.0,0.0,8.999999999999999e-08
31603000000,5902,31603000000,base_link,0.006124706268618285,-0.011943194609380493,0.029648242731836916,-0.9994703234404926,1.0,0.0,0.0,0.0,1.0,0.0,0.0,0.0,1.0,0.0012390906922519207,0.0035400432534515853,-0.002212418476119638,1.2184696791468346e-07,0.0,0.0,0.0,1.2184696791468346e-07,0.0,0.0,0.0,1.2184696791468346e-07,-0.22970138490200043,-0.14358918368816256,9.828837394714355,8.999999999999999e-08,0.0,0.0,0.0,8.999999999999999e-08,0.0,0.0,0.0,8.999999999999999e-08
31609000000,5903,31609000000,base_link,0.006125537681059613,-0.01194188509362637,0.02965485978705318,-0.99947011270625,1.0,0.0,0.0,0.0,1.0,0.0,0.0,0.0,1.0,0.0008934306679293513,0.0009772828780114649,-0.0026501393876969814,1.2184696791468346e-07,0.0,0.0,0.0,1.2184696791468346e-07,0.0,0.0,0.0,1.2184696791468346e-07,-0.25902634859085083,-0.1813710480928409,9.816460609436035,8.999999999999999e-08,0.0,0.0,0.0,8.999999999999999e-08,0.0,0.0,0.0,8.999999999999999e-08
31614000000,5904,31614000000,base_link,0.006125078675537549,-0.011943086937353438,0.029662277632391043,-0.999469859825159,1.0,0.0,0.0,0.0,1.0,0.0,0.0,0.0,1.0,0.000603655178565532,0.00047977222129702525,-0.003755915677174926,1.2184696791468346e-07,0.0,0.0,0.0,1.2184696791468346e-07,0.0,0.0,0.0,1.2184696791468346e-07,-0.21570293605327606,-0.1731492727994907,9.783074378967285,8.999999999999999e-08,0.0,0.0,0.0,8.999999999999999e-08,0.0,0.0,0.0,8.999999999999999e-08
31619000000,5905,31619000000,base_link,0.006120665768789556,-0.011950202510762191,0.029661645429663486,-0.9994698176783104,1.0,0.0,0.0,0.0,1.0,0.0,0.0,0.0,1.0,0.0015238060150295496,0.002509859856218099,-0.0023587441537529234,1.2184696791468346e-07,0.0,0.0,0.0,1.2184696791468346e-07,0.0,0.0,0.0,1.2184696791468346e-07,-0.2598830461502075,-0.20355680584907412,9.824178695678711,8.999999999999999e-08,0.0,0.0,0.0,8.999999999999999e-08,0.0,0.0,0.0,8.999999999999999e-08
31623000000,5906,31623000000,base_link,0.006121994382334412,-0.011953241364394277,0.029663078422512756,-0.9994697333846134,1.0,0.0,0.0,0.0,1.0,0.0,0.0,0.0,1.0,-5.2575720474123955e-05,0.0021559274755418296,-0.0018665720708668234,1.2184696791468346e-07,0.0,0.0,0.0,1.2184696791468346e-07,0.0,0.0,0.0,1.2184696791468346e-07,-0.19976672530174255,-0.18504324555396914,9.755769729614258,8.999999999999999e-08,0.0,0.0,0.0,8.999999999999999e-08,0.0,0.0,0.0,8.999999999999999e-08
31628000000,5907,31628000000,base_link,0.0061281524320285575,-0.011947282195141542,0.029671002030032867,-0.9994695647972194,1.0,0.0,0.0,0.0,1.0,0.0,0.0,0.0,1.0,-0.0010490835411474109,-0.0018722927197813992,-0.0032230487558990713,1.2184696791468346e-07,0.0,0.0,0.0,1.2184696791468346e-07,0.0,0.0,0.0,1.2184696791468346e-07,-0.19824524223804474,-0.15512514114379763,9.78214168548584,8.999999999999999e-08,0.0,0.0,0.0,8.999999999999999e-08,0.0,0.0,0.0,8.999999999999999e-08
31634000000,5908,31634000000,base_link,0.006120726684156545,-0.011950078375122436,0.029659243059298346,-0.9994699441188559,1.0,0.0,0.0,0.0,1.0,0.0,0.0,0.0,1.0,0.0015261812368407845,0.0008294465951621534,0.00103186652995646,1.2184696791468346e-07,0.0,0.0,0.0,1.2184696791468346e-07,0.0,0.0,0.0,1.2184696791468346e-07,-0.19562293589115143,-0.1546078771352756,9.805660247802734,8.999999999999999e-08,0.0,0.0,0.0,8.999999999999999e-08,0.0,0.0,0.0,8.999999999999999e-08
31639000000,5909,31639000000,base_link,0.006119451083444583,-0.011964125788022218,0.029656840688933206,-0.9994698176783103,1.0,0.0,0.0,0.0,1.0,0.0,0.0,0.0,1.0,0.0009025832405313849,0.004949137102812529,0.0005142647423781448,1.2184696791468346e-07,0.0,0.0,0.0,1.2184696791468346e-07,0.0,0.0,0.0,1.2184696791468346e-07,-0.19178372621536255,-0.20993246138095736,9.811100006103516,8.999999999999999e-08,0.0,0.0,0.0,8.999999999999999e-08,0.0,0.0,0.0,8.999999999999999e-08
31644000000,5910,31644000000,base_link,0.0061199278696683615,-0.011970558450776192,0.029656882835781717,-0.9994697755314619,1.0,0.0,0.0,0.0,1.0,0.0,0.0,0.0,1.0,0.0006992077105678618,0.0032937307842075825,0.000643107516225427,1.2184696791468346e-07,0.0,0.0,0.0,1.2184696791468346e-07,0.0,0.0,0.0,1.2184696791468346e-07,-0.2094251662492752,-0.1529769003391254,9.783384323120117,8.999999999999999e-08,0.0,0.0,0.0,8.999999999999999e-08,0.0,0.0,0.0,8.999999999999999e-08
31648000000,5911,31648000000,base_link,0.006115727343524195,-0.01196591209000012,0.029652794591476128,-0.9994699862657045,1.0,0.0,0.0,0.0,1.0,0.0,0.0,0.0,1.0,0.0013975761830806732,0.0007761605083942414,0.0010762913152575493,1.2184696791468346e-07,0.0,0.0,0.0,1.2184696791468346e-07,0.0,0.0,0.0,1.2184696791468346e-07,-0.22863689064979553,-0.151007682085036,9.870500564575195,8.999999999999999e-08,0.0,0.0,0.0,8.999999999999999e-08,0.0,0.0,0.0,8.999999999999999e-08
31655000000,5912,31655000000,base_link,0.006111298302435757,-0.011970956211659013,0.029639096865710146,-0.999470365587341,1.0,0.0,0.0,0.0,1.0,0.0,0.0,0.0,1.0,0.001048162579536438,0.0013825804926455023,0.0015964750200510023,1.2184696791468346e-07,0.0,0.0,0.0,1.2184696791468346e-07,0.0,0.0,0.0,1.2184696791468346e-07,-0.2220274955034256,-0.18143291771411776,9.793963432312012,8.999999999999999e-08,0.0,0.0,0.0,8.999999999999999e-08,0.0,0.0,0.0,8.999999999999999e-08
31659000000,5913,31659000000,base_link,0.006111382266860524,-0.011975765232928556,0.029636820935890484,-0.9994703655873411,1.0,0.0,0.0,0.0,1.0,0.0,0.0,0.0,1.0,0.001526037696748972,0.001122176181524992,0.000655120878946036,1.2184696791468346e-07,0.0,0.0,0.0,1.2184696791468346e-07,0.0,0.0,0.0,1.2184696791468346e-07,-0.23231492936611176,-0.11094435304403186,9.780771255493164,8.999999999999999e-08,0.0,0.0,0.0,8.999999999999999e-08,0.0,0.0,0.0,8.999999999999999e-08
31664000000,5914,31664000000,base_link,0.006098883092099013,-0.011970176824233816,0.029626621398550934,-0.9994707870558261,1.0,0.0,0.0,0.0,1.0,0.0,0.0,0.0,1.0,0.0018897802801802754,-0.0011103576980531213,0.0009723218972794713,1.2184696791468346e-07,0.0,0.0,0.0,1.2184696791468346e-07,0.0,0.0,0.0,1.2184696791468346e-07,-0.19179201126098633,-0.12265441566705584,9.767581939697266,8.999999999999999e-08,0.0,0.0,0.0,8.999999999999999e-08,0.0,0.0,0.0,8.999999999999999e-08
31669000000,5915,31669000000,base_link,0.006106255168593626,-0.011950516307220245,0.029632269076251383,-0.9994707870558261,1.0,0.0,0.0,0.0,1.0,0.0,0.0,0.0,1.0,-0.00013405806384980679,-0.004186694510281086,-0.0017522694543004032,1.2184696791468346e-07,0.0,0.0,0.0,1.2184696791468346e-07,0.0,0.0,0.0,1.2184696791468346e-07,-0.2865462899208069,-0.14295274019241214,9.824862480163574,8.999999999999999e-08,0.0,0.0,0.0,8.999999999999999e-08,0.0,0.0,0.0,8.999999999999999e-08
31673000000,5916,31673000000,base_link,0.006111730636905247,-0.011944159706356943,0.029629318796855597,-0.9994708713495232,1.0,0.0,0.0,0.0,1.0,0.0,0.0,0.0,1.0,-0.0012175297597423196,-0.004078353755176067,-0.0012414632365107532,1.2184696791468346e-07,0.0,0.0,0.0,1.2184696791468346e-07,0.0,0.0,0.0,1.2184696791468346e-07,-0.24396798014640808,-0.1278778463602054,9.738779067993164,8.999999999999999e-08,0.0,0.0,0.0,8.999999999999999e-08,0.0,0.0,0.0,8.999999999999999e-08
31678000000,5917,31678000000,base_link,0.006106390499490016,-0.011941671066661276,0.02963281698528203,-0.9994709134963717,1.0,0.0,0.0,0.0,1.0,0.0,0.0,0.0,1.0,9.981484618037939e-05,-0.0024001589044928555,-0.0020271374378353353,1.2184696791468346e-07,0.0,0.0,0.0,1.2184696791468346e-07,0.0,0.0,0.0,1.2184696791468346e-07,-0.24666139483451843,-0.13773113489150882,9.824990272521973,8.999999999999999e-08,0.0,0.0,0.0,8.999999999999999e-08,0.0,0.0,0.0,8.999999999999999e-08
31684000000,5918,31684000000,base_link,0.0061094573412636905,-0.011948017460084705,0.029630878230250568,-0.9994709134963717,1.0,0.0,0.0,0.0,1.0,0.0,0.0,0.0,1.0,-0.0007650802144780755,0.0010884790681302547,-0.0005929573671892286,1.2184696791468346e-07,0.0,0.0,0.0,1.2184696791468346e-07,0.0,0.0,0.0,1.2184696791468346e-07,-0.2694877088069916,-0.2038384824991213,10.987995147705078,8.999999999999999e-08,0.0,0.0,0.0,8.999999999999999e-08,0.0,0.0,0.0,8.999999999999999e-08
31689000000,5919,31689000000,base_link,0.006125062211924849,-0.011945620358075648,0.02960234481380869,-0.9994716299927964,1.0,0.0,0.0,0.0,1.0,0.0,0.0,0.0,1.0,-0.003271191380918026,0.0006407522596418862,0.003954532090574503,1.2184696791468346e-07,0.0,0.0,0.0,1.2184696791468346e-07,0.0,0.0,0.0,1.2184696791468346e-07,-0.28006047010421753,-0.17767460644244978,13.862479209899902,8.999999999999999e-08,0.0,0.0,0.0,8.999999999999999e-08,0.0,0.0,0.0,8.999999999999999e-08
31694000000,5920,31694000000,base_link,0.006131626912852676,-0.011950593356927679,0.029574696481185547,-0.9994723043423726,1.0,0.0,0.0,0.0,1.0,0.0,0.0,0.0,1.0,-0.0044944570399820805,0.00116542959585786,0.010313953272998333,1.2184696791468346e-07,0.0,0.0,0.0,1.2184696791468346e-07,0.0,0.0,0.0,1.2184696791468346e-07,-0.26955434679985046,-0.1459127813577634,14.833227157592773,8.999999999999999e-08,0.0,0.0,0.0,8.999999999999999e-08,0.0,0.0,0.0,8.999999999999999e-08
31698000000,5921,31698000000,base_link,0.006142999647233282,-0.011962128751801759,0.029536848611222744,-0.9994732315730398,1.0,0.0,0.0,0.0,1.0,0.0,0.0,0.0,1.0,-0.00508307758718729,0.0036759865470230597,0.014937324449419975,1.2184696791468346e-07,0.0,0.0,0.0,1.2184696791468346e-07,0.0,0.0,0.0,1.2184696791468346e-07,-0.2883450388908386,-0.12848928570747187,15.520241737365723,8.999999999999999e-08,0.0,0.0,0.0,8.999999999999999e-08,0.0,0.0,0.0,8.999999999999999e-08
31703000000,5922,31703000000,base_link,0.006144158027022824,-0.011972245971077896,0.029498747860168817,-0.999474243097404,1.0,0.0,0.0,0.0,1.0,0.0,0.0,0.0,1.0,-0.0033290954306721687,0.00525409681722522,0.018217263743281364,1.2184696791468346e-07,0.0,0.0,0.0,1.2184696791468346e-07,0.0,0.0,0.0,1.2184696791468346e-07,-0.12864574790000916,-0.1508215665817241,16.042131423950195,8.999999999999999e-08,0.0,0.0,0.0,8.999999999999999e-08,0.0,0.0,0.0,8.999999999999999e-08
31709000000,5923,31709000000,base_link,0.006156574883720838,-0.011987977940829096,0.029387058711615066,-0.9994772776704969,1.0,0.0,0.0,0.0,1.0,0.0,0.0,0.0,1.0,-0.00388550478965044,0.004827990662306551,0.025435300543904305,1.2184696791468346e-07,0.0,0.0,0.0,1.2184696791468346e-07,0.0,0.0,0.0,1.2184696791468346e-07,-0.21396388113498688,-0.15461920201778212,16.413312911987305,8.999999999999999e-08,0.0,0.0,0.0,8.999999999999999e-08,0.0,0.0,0.0,8.999999999999999e-08
31714000000,5924,31714000000,base_link,0.006170850482292634,-0.011986944355223817,0.029316884208844318,-0.9994792585723768,1.0,0.0,0.0,0.0,1.0,0.0,0.0,0.0,1.0,-0.0050627016462385654,0.0014281477779150048,0.031038394197821617,1.2184696791468346e-07,0.0,0.0,0.0,1.2184696791468346e-07,0.0,0.0,0.0,1.2184696791468346e-07,-0.25104817748069763,-0.21116785705089364,16.8265323638916,8.999999999999999e-08,0.0,0.0,0.0,8.999999999999999e-08,0.0,0.0,0.0,8.999999999999999e-08
31719000000,5925,31719000000,base_link,0.006184593318357472,-0.011998954560688153,0.02925206235583455,-0.9994809444463173,1.0,0.0,0.0,0.0,1.0,0.0,0.0,0.0,1.0,-0.0072379279881715775,0.004211649764329199,0.03305310383439064,1.2184696791468346e-07,0.0,0.0,0.0,1.2184696791468346e-07,0.0,0.0,0.0,1.2184696791468346e-07,-0.22428546845912933,-0.20756477117538244,16.965967178344727,8.999999999999999e-08,0.0,0.0,0.0,8.999999999999999e-08,0.0,0.0,0.0,8.999999999999999e-08
31724000000,5926,31724000000,base_link,0.00620505396694824,-0.012019805726172155,0.029175945147423887,-0.9994827989076518,1.0,0.0,0.0,0.0,1.0,0.0,0.0,0.0,1.0,-0.009080839343369007,0.006678853649646048,0.03647131100296974,1.2184696791468346e-07,0.0,0.0,0.0,1.2184696791468346e-07,0.0,0.0,0.0,1.2184696791468346e-07,-0.165825754404068,-0.20762506127357275,17.07839584350586,8.999999999999999e-08,0.0,0.0,0.0,8.999999999999999e-08,0.0,0.0,0.0,8.999999999999999e-08
31728000000,5927,31728000000,base_link,0.006220808327212712,-0.012030327291776194,0.029089670548522073,-0.99948511698432,1.0,0.0,0.0,0.0,1.0,0.0,0.0,0.0,1.0,-0.010748575441539288,0.006719654891639953,0.04222341999411583,1.2184696791468346e-07,0.0,0.0,0.0,1.2184696791468346e-07,0.0,0.0,0.0,1.2184696791468346e-07,-0.22183223068714142,-0.16729722917079715,17.14300537109375,8.999999999999999e-08,0.0,0.0,0.0,8.999999999999999e-08,0.0,0.0,0.0,8.999999999999999e-08
31735000000,5928,31735000000,base_link,0.006276721060846223,-0.01205359004724843,0.02888176014481786,-0.9994904696340807,1.0,0.0,0.0,0.0,1.0,0.0,0.0,0.0,1.0,-0.014331175945699215,0.005357352551072842,0.0516774021089077,1.2184696791468346e-07,0.0,0.0,0.0,1.2184696791468346e-07,0.0,0.0,0.0,1.2184696791468346e-07,-0.19441252946853638,-0.13089601695537356,17.19940757751465,8.999999999999999e-08,0.0,0.0,0.0,8.999999999999999e-08,0.0,0.0,0.0,8.999999999999999e-08
31739000000,5929,31739000000,base_link,0.006298580128699693,-0.01206029600597322,0.028763496087896356,-0.9994936727945676,1.0,0.0,0.0,0.0,1.0,0.0,0.0,0.0,1.0,-0.01393404882401228,0.004319549072533853,0.056608133018016815,1.2184696791468346e-07,0.0,0.0,0.0,1.2184696791468346e-07,0.0,0.0,0.0,1.2184696791468346e-07,-0.19522418081760406,-0.15462096035480288,17.21895980834961,8.999999999999999e-08,0.0,0.0,0.0,8.999999999999999e-08,0.0,0.0,0.0,8.999999999999999e-08
31744000000,5930,31744000000,base_link,0.00632868614942663,-0.012067470189843181,0.028644599828247075,-0.9994968338082059,1.0,0.0,0.0,0.0,1.0,0.0,0.0,0.0,1.0,-0.016902843490242958,0.0034342329017818048,0.060523804277181625,1.2184696791468346e-07,0.0,0.0,0.0,1.2184696791468346e-07,0.0,0.0,0.0,1.2184696791468346e-07,-0.259134978055954,-0.1413821130990961,17.221027374267578,8.999999999999999e-08,0.0,0.0,0.0,8.999999999999999e-08,0.0,0.0,0.0,8.999999999999999e-08
31749000000,5931,31749000000,base_link,0.006412442803402159,-0.012103771468028967,0.02837393276711009,-0.9995035773039675,1.0,0.0,0.0,0.0,1.0,0.0,0.0,0.0,1.0,-0.020608747377991676,0.0070545445196330625,0.06614717841148376,1.2184696791468346e-07,0.0,0.0,0.0,1.2184696791468346e-07,0.0,0.0,0.0,1.2184696791468346e-07,-0.1923268586397171,-0.1822988837957361,17.18772315979004,8.999999999999999e-08,0.0,0.0,0.0,8.999999999999999e-08,0.0,0.0,0.0,8.999999999999999e-08
31754000000,5932,31753000000,base_link,0.006450265319401384,-0.012111069787538687,0.028221824790834293,-0.9995075812545762,1.0,0.0,0.0,0.0,1.0,0.0,0.0,0.0,1.0,-0.02164003998041153,0.006536188069731006,0.0705457478761673,1.2184696791468346e-07,0.0,0.0,0.0,1.2184696791468346e-07,0.0,0.0,0.0,1.2184696791468346e-07,-0.1866292804479599,-0.15280717611312655,17.154155731201172,8.999999999999999e-08,0.0,0.0,0.0,8.999999999999999e-08,0.0,0.0,0.0,8.999999999999999e-08
31760000000,5933,31760000000,base_link,0.00649031602074337,-0.012125110614993386,0.02806394269631246,-0.9995115430583362,1.0,0.0,0.0,0.0,1.0,0.0,0.0,0.0,1.0,-0.022882545366883278,0.005160219501703987,0.07767068594694138,1.2184696791468346e-07,0.0,0.0,0.0,1.2184696791468346e-07,0.0,0.0,0.0,1.2184696791468346e-07,-0.2527652978897095,-0.20218904316425113,17.176279067993164,8.999999999999999e-08,0.0,0.0,0.0,8.999999999999999e-08,0.0,0.0,0.0,8.999999999999999e-08
31764000000,5934,31764000000,base_link,0.006533986741245734,-0.012139424738418898,0.02790353179088001,-0.9995155891557933,1.0,0.0,0.0,0.0,1.0,0.0,0.0,0.0,1.0,-0.02284909412264824,0.006463455501943836,0.0801742821931839,1.2184696791468346e-07,0.0,0.0,0.0,1.2184696791468346e-07,0.0,0.0,0.0,1.2184696791468346e-07,-0.20081175863742828,-0.19971798360347537,17.171981811523438,8.999999999999999e-08,0.0,0.0,0.0,8.999999999999999e-08,0.0,0.0,0.0,8.999999999999999e-08
31769000000,5935,31769000000,base_link,0.006628285046432796,-0.01218018864346303,0.027559655653879633,-0.999523976378647,1.0,0.0,0.0,0.0,1.0,0.0,0.0,0.0,1.0,-0.024118008092045784,0.008805083110928546,0.08468984067440033,1.2184696791468346e-07,0.0,0.0,0.0,1.2184696791468346e-07,0.0,0.0,0.0,1.2184696791468346e-07,-0.2433808594942093,-0.19991703331470279,17.19147491455078,8.999999999999999e-08,0.0,0.0,0.0,8.999999999999999e-08,0.0,0.0,0.0,8.999999999999999e-08
31774000000,5936,31774000000,base_link,0.006673389089056788,-0.012200582120513984,0.027370669185156737,-0.9995286125319831,1.0,0.0,0.0,0.0,1.0,0.0,0.0,0.0,1.0,-0.02483384497463703,0.009513214230537425,0.09012311697006226,1.2184696791468346e-07,0.0,0.0,0.0,1.2184696791468346e-07,0.0,0.0,0.0,1.2184696791468346e-07,-0.23049789667129517,-0.15493473410606176,17.10527801513672,8.999999999999999e-08,0.0,0.0,0.0,8.999999999999999e-08,0.0,0.0,0.0,8.999999999999999e-08
31778000000,5937,31778000000,base_link,0.0067190043268551,-0.012220629038517611,0.02718577096073954,-0.9995331222447739,1.0,0.0,0.0,0.0,1.0,0.0,0.0,0.0,1.0,-0.024812044575810432,0.00961471535265447,0.09263736009597778,1.2184696791468346e-07,0.0,0.0,0.0,1.2184696791468346e-07,0.0,0.0,0.0,1.2184696791468346e-07,-0.2647670805454254,-0.18006154894828585,17.13609504699707,8.999999999999999e-08,0.0,0.0,0.0,8.999999999999999e-08,0.0,0.0,0.0,8.999999999999999e-08
