%time,field.header.seq,field.header.stamp,field.header.frame_id,field.orientation.x,field.orientation.y,field.orientation.z,field.orientation.w,field.orientation_covariance0,field.orientation_covariance1,field.orientation_covariance2,field.orientation_covariance3,field.orientation_covariance4,field.orientation_covariance5,field.orientation_covariance6,field.orientation_covariance7,field.orientation_covariance8,field.angular_velocity.x,field.angular_velocity.y,field.angular_velocity.z,field.angular_velocity_covariance0,field.angular_velocity_covariance1,field.angular_velocity_covariance2,field.angular_velocity_covariance3,field.angular_velocity_covariance4,field.angular_velocity_covariance5,field.angular_velocity_covariance6,field.angular_velocity_covariance7,field.angular_velocity_covariance8,field.linear_acceleration.x,field.linear_acceleration.y,field.linear_acceleration.z,field.linear_acceleration_covariance0,field.linear_acceleration_covariance1,field.linear_acceleration_covariance2,field.linear_acceleration_covariance3,field.linear_acceleration_covariance4,field.linear_acceleration_covariance5,field.linear_acceleration_covariance6,field.linear_acceleration_covariance7,field.linear_acceleration_covariance8
1758793484009279512,123175,1758793483906251328,base_link,-0.00845764892044054,-0.001736564086848654,0.015611529863223322,-0.9998409206794489,1.0,0.0,0.0,0.0,1.0,0.0,0.0,0.0,1.0,0.0005064019933342934,-0.0003490117378532889,-0.0021980456076562405,1.2184696791468346e-07,0.0,0.0,0.0,1.2184696791468346e-07,0.0,0.0,0.0,1.2184696791468346e-07,-0.013832938857376575,0.18590684235096097,9.790709495544434,8.999999999999999e-08,0.0,0.0,0.0,8.999999999999999e-08,0.0,0.0,0.0,8.999999999999999e-08
1758793484009320536,123176,1758793483915251328,base_link,-0.008470499428697062,-0.0017429463709477686,0.015604870661158574,-0.9998409206794489,1.0,0.0,0.0,0.0,1.0,0.0,0.0,0.0,1.0,0.0015469812788069248,0.0021771700121462345,-0.0012082265457138421,1.2184696791468346e-07,0.0,0.0,0.0,1.2184696791468346e-07,0.0,0.0,0.0,1.2184696791468346e-07,-0.05797893926501274,0.21111446619033933,9.827280044555664,8.999999999999999e-08,0.0,0.0,0.0,8.999999999999999e-08,0.0,0.0,0.0,8.999999999999999e-08
1758793484009360696,123177,1758793483917251328,base_link,-0.008472649576515626,-0.001748235800435886,0.01559538762024364,-0.9998409628262973,1.0,0.0,0.0,0.0,1.0,0.0,0.0,0.0,1.0,0.0008142434526234865,0.0020350951235741377,0.0015964076155796645,1.2184696791468346e-07,0.0,0.0,0.0,1.2184696791468346e-07,0.0,0.0,0.0,1.2184696791468346e-07,-0.046019356697797775,0.16813546419143796,9.81025218963623,8.999999999999999e-08,0.0,0.0,0.0,8.999999999999999e-08,0.0,0.0,0.0,8.999999999999999e-08
1758793484009388728,123178,1758793483927251328,base_link,-0.00846840887915647,-0.0017483592775311325,0.015601878234914345,-0.9998409628262973,1.0,0.0,0.0,0.0,1.0,0.0,0.0,0.0,1.0,-0.0012706632260233164,0.0012202260550111532,-0.0002455801004543902,1.2184696791468346e-07,0.0,0.0,0.0,1.2184696791468346e-07,0.0,0.0,0.0,1.2184696791468346e-07,-0.04603247717022896,0.18582744896412015,9.806686401367188,8.999999999999999e-08,0.0,0.0,0.0,8.999999999999999e-08,0.0,0.0,0.0,8.999999999999999e-08
1758793484009583288,123179,1758793483932251328,base_link,-0.008462615663119746,-0.0017515920725208198,0.015593870333697241,-0.9998411314136914,1.0,0.0,0.0,0.0,1.0,0.0,0.0,0.0,1.0,-0.0003754200879484415,-0.0031719347462058067,-0.00011976342648267707,1.2184696791468346e-07,0.0,0.0,0.0,1.2184696791468346e-07,0.0,0.0,0.0,1.2184696791468346e-07,-0.03940129280090332,0.20832197368145108,9.800019264221191,8.999999999999999e-08,0.0,0.0,0.0,8.999999999999999e-08,0.0,0.0,0.0,8.999999999999999e-08
1758793484009670680,123180,1758793483936251328,base_link,-0.008463441477932756,-0.0017456671475824992,0.015593111690424042,-0.9998411314136914,1.0,0.0,0.0,0.0,1.0,0.0,0.0,0.0,1.0,-0.0007266311440616846,-0.0003431285731494424,0.0020715780556201935,1.2184696791468346e-07,0.0,0.0,0.0,1.2184696791468346e-07,0.0,0.0,0.0,1.2184696791468346e-07,-0.0406549908220768,0.16469639539718747,9.809045791625977,8.999999999999999e-08,0.0,0.0,0.0,8.999999999999999e-08,0.0,0.0,0.0,8.999999999999999e-08
1758793484009941752,123181,1758793483946251328,base_link,-0.008467431599106625,-0.0017554129477561355,0.015593153837272554,-0.9998410892668429,1.0,0.0,0.0,0.0,1.0,0.0,0.0,0.0,1.0,-7.18927476555109e-05,0.0003926719073206186,-0.0005024190759286284,1.2184696791468346e-07,0.0,0.0,0.0,1.2184696791468346e-07,0.0,0.0,0.0,1.2184696791468346e-07,-0.05648832395672798,0.1088087335228932,9.80352783203125,8.999999999999999e-08,0.0,0.0,0.0,8.999999999999999e-08,0.0,0.0,0.0,8.999999999999999e-08
1758793484009962072,123182,1758793483951251328,base_link,-0.008470998605434111,-0.0017478413322756041,0.015583797236903153,-0.9998411735605399,1.0,0.0,0.0,0.0,1.0,0.0,0.0,0.0,1.0,0.0009134989231824875,0.0004161372780799867,0.0006664333632215858,1.2184696791468346e-07,0.0,0.0,0.0,1.2184696791468346e-07,0.0,0.0,0.0,1.2184696791468346e-07,-0.04134933650493622,0.16887226700782895,9.806166648864746,8.999999999999999e-08,0.0,0.0,0.0,8.999999999999999e-08,0.0,0.0,0.0,8.999999999999999e-08
1758793484010004920,123183,1758793483961251328,base_link,-0.008456664396401106,-0.0017494057047543173,0.015589655648846136,-0.9998412157073884,1.0,0.0,0.0,0.0,1.0,0.0,0.0,0.0,1.0,-0.0009655661415308714,0.0006876785773783922,0.000325411558151245,1.2184696791468346e-07,0.0,0.0,0.0,1.2184696791468346e-07,0.0,0.0,0.0,1.2184696791468346e-07,-0.03453574329614639,0.20064897835254789,9.790885925292969,8.999999999999999e-08,0.0,0.0,0.0,8.999999999999999e-08,0.0,0.0,0.0,8.999999999999999e-08
1758793484010021880,123184,1758793483966251328,base_link,-0.008458534992076031,-0.001746219337152443,0.015593153837272554,-0.9998411735605399,1.0,0.0,0.0,0.0,1.0,0.0,0.0,0.0,1.0,-0.002364130923524499,0.0012976191937923431,-0.00031769298948347585,1.2184696791468346e-07,0.0,0.0,0.0,1.2184696791468346e-07,0.0,0.0,0.0,1.2184696791468346e-07,-0.0497591495513916,0.14789699018001676,9.810349464416504,8.999999999999999e-08,0.0,0.0,0.0,8.999999999999999e-08,0.0,0.0,0.0,8.999999999999999e-08
1758793484010034488,123185,1758793483977251328,base_link,-0.008465988728089634,-0.0017400477872958826,0.015597537109517704,-0.9998410049731459,1.0,0.0,0.0,0.0,1.0,0.0,0.0,0.0,1.0,0.0002883942797780037,-0.0013442835770547392,-0.0013281657593324778,1.2184696791468346e-07,0.0,0.0,0.0,1.2184696791468346e-07,0.0,0.0,0.0,1.2184696791468346e-07,-0.033022522926330566,0.2263641208410275,9.835613250732422,8.999999999999999e-08,0.0,0.0,0.0,8.999999999999999e-08,0.0,0.0,0.0,8.999999999999999e-08
1758793484010049336,123186,1758793483981251328,base_link,-0.008460266634859772,-0.0017468472593408044,0.015594839711212996,-0.9998410892668429,1.0,0.0,0.0,0.0,1.0,0.0,0.0,0.0,1.0,-0.00010398915037512779,0.000328176422044635,0.001493280753493309,1.2184696791468346e-07,0.0,0.0,0.0,1.2184696791468346e-07,0.0,0.0,0.0,1.2184696791468346e-07,-0.06649571657180786,0.1623518317937863,9.805158615112305,8.999999999999999e-08,0.0,0.0,0.0,8.999999999999999e-08,0.0,0.0,0.0,8.999999999999999e-08
1758793484010672568,123187,1758793483992251328,base_link,-0.00845072662984488,-0.0017310102517405818,0.015604997101704106,-0.9998410471199943,1.0,0.0,0.0,0.0,1.0,0.0,0.0,0.0,1.0,0.0007720761932432652,-0.002953156363219023,-0.004633328877389431,1.2184696791468346e-07,0.0,0.0,0.0,1.2184696791468346e-07,0.0,0.0,0.0,1.2184696791468346e-07,-0.034224677830934525,0.12104802578687789,9.815319061279297,8.999999999999999e-08,0.0,0.0,0.0,8.999999999999999e-08,0.0,0.0,0.0,8.999999999999999e-08
1758793484010781624,123188,1758793483996251328,base_link,-0.008441362126941366,-0.0017350142023491166,0.01559580908872875,-0.9998413000010854,1.0,0.0,0.0,0.0,1.0,0.0,0.0,0.0,1.0,-0.0005761061329394579,-0.001104384195059538,-0.0016851135296747086,1.2184696791468346e-07,0.0,0.0,0.0,1.2184696791468346e-07,0.0,0.0,0.0,1.2184696791468346e-07,-0.044042233377695084,0.1626753956079495,9.80172348022461,8.999999999999999e-08,0.0,0.0,0.0,8.999999999999999e-08,0.0,0.0,0.0,8.999999999999999e-08
1758793484010813656,123189,1758793484005250304,base_link,-0.008442213624990187,-0.0017269035681888017,0.01560748376576626,-0.9998410892668429,1.0,0.0,0.0,0.0,1.0,0.0,0.0,0.0,1.0,-6.476696580648422e-05,-0.0039479900151491165,0.00020820461213588763,1.2184696791468346e-07,0.0,0.0,0.0,1.2184696791468346e-07,0.0,0.0,0.0,1.2184696791468346e-07,-0.06151596084237099,0.21346822381019712,9.836830139160156,8.999999999999999e-08,0.0,0.0,0.0,8.999999999999999e-08,0.0,0.0,0.0,8.999999999999999e-08
1758793484013372088,123190,1758793484006250304,base_link,-0.008445562982357787,-0.0017118828265062238,0.015592353047150842,-0.9998413842947824,1.0,0.0,0.0,0.0,1.0,0.0,0.0,0.0,1.0,0.0034522954374551773,-0.0014837523922324178,0.001426156144589186,1.2184696791468346e-07,0.0,0.0,0.0,1.2184696791468346e-07,0.0,0.0,0.0,1.2184696791468346e-07,-0.04146217554807663,0.18101349472999692,9.772618293762207,8.999999999999999e-08,0.0,0.0,0.0,8.999999999999999e-08,0.0,0.0,0.0,8.999999999999999e-08
1758793484018810968,123191,1758793484011250304,base_link,-0.008457666371870003,-0.0017187310308447363,0.015597199934729616,-0.9998411735605399,1.0,0.0,0.0,0.0,1.0,0.0,0.0,0.0,1.0,-0.001326248748227954,-0.00039562815800309203,-0.0019453848944976926,1.2184696791468346e-07,0.0,0.0,0.0,1.2184696791468346e-07,0.0,0.0,0.0,1.2184696791468346e-07,-0.03716406971216202,0.1165485680103314,9.796022415161133,8.999999999999999e-08,0.0,0.0,0.0,8.999999999999999e-08,0.0,0.0,0.0,8.999999999999999e-08
1758793484030139416,123192,1758793484021250304,base_link,-0.0084356150090202,-0.0017069654746651166,0.015600740270004543,-0.999841342147934,1.0,0.0,0.0,0.0,1.0,0.0,0.0,0.0,1.0,-0.0006131541449576616,-0.0006065489724278449,0.0012420896673575044,1.2184696791468346e-07,0.0,0.0,0.0,1.2184696791468346e-07,0.0,0.0,0.0,1.2184696791468346e-07,-0.02907758578658104,0.208686947822572,9.827949523925781,8.999999999999999e-08,0.0,0.0,0.0,8.999999999999999e-08,0.0,0.0,0.0,8.999999999999999e-08
1758793484033299160,123193,1758793484026250304,base_link,-0.008455479674831245,-0.0017042809179783252,0.015606135066613906,-0.9998410892668429,1.0,0.0,0.0,0.0,1.0,0.0,0.0,0.0,1.0,0.0005033810157328844,2.894643694162394e-05,0.0020544161088764668,1.2184696791468346e-07,0.0,0.0,0.0,1.2184696791468346e-07,0.0,0.0,0.0,1.2184696791468346e-07,-0.050308957695961,0.165395110845567,9.790884017944336,8.999999999999999e-08,0.0,0.0,0.0,8.999999999999999e-08,0.0,0.0,0.0,8.999999999999999e-08
1758793484038592696,123194,1758793484035250304,base_link,-0.008443195185579335,-0.001705734984251951,0.015604364898976441,-0.9998411735605399,1.0,0.0,0.0,0.0,1.0,0.0,0.0,0.0,1.0,0.003913491033017635,-0.0011723577044904234,-0.0011109526967629788,1.2184696791468346e-07,0.0,0.0,0.0,1.2184696791468346e-07,0.0,0.0,0.0,1.2184696791468346e-07,-0.030307237058877945,0.15296027064323545,9.779885292053223,8.999999999999999e-08,0.0,0.0,0.0,8.999999999999999e-08,0.0,0.0,0.0,8.999999999999999e-08
1758793484048370040,123195,1758793484041250304,base_link,-0.00845824029340871,-0.0017032022220742494,0.015615660254377405,-0.9998409206794489,1.0,0.0,0.0,0.0,1.0,0.0,0.0,0.0,1.0,0.0007147421129047871,-0.00022029597312212004,-0.0011750528356060386,1.2184696791468346e-07,0.0,0.0,0.0,1.2184696791468346e-07,0.0,0.0,0.0,1.2184696791468346e-07,-0.025569308549165726,0.17944289743900418,9.80888557434082,8.999999999999999e-08,0.0,0.0,0.0,8.999999999999999e-08,0.0,0.0,0.0,8.999999999999999e-08
1758793484061042712,123196,1758793484052250304,base_link,-0.008459131962672516,-0.0016974254696502252,0.015605292129643684,-0.9998410892668429,1.0,0.0,0.0,0.0,1.0,0.0,0.0,0.0,1.0,0.003537942422553897,0.0002830401062965394,0.0007931212894618511,1.2184696791468346e-07,0.0,0.0,0.0,1.2184696791468346e-07,0.0,0.0,0.0,1.2184696791468346e-07,-0.06538573652505875,0.17088980972766996,9.80685043334961,8.999999999999999e-08,0.0,0.0,0.0,8.999999999999999e-08,0.0,0.0,0.0,8.999999999999999e-08
1758793484063605016,123197,1758793484056250304,base_link,-0.008470371012518005,-0.0016962384431745865,0.015610349751465013,-0.9998408363857518,1.0,0.0,0.0,0.0,1.0,0.0,0.0,0.0,1.0,0.002401566132903099,-0.0003709453158080578,8.45723552629352e-05,1.2184696791468346e-07,0.0,0.0,0.0,1.2184696791468346e-07,0.0,0.0,0.0,1.2184696791468346e-07,-0.03140056133270264,0.12905070185661435,9.790618896484375,8.999999999999999e-08,0.0,0.0,0.0,8.999999999999999e-08,0.0,0.0,0.0,8.999999999999999e-08
1758793484068839544,123198,1758793484065250304,base_link,-0.008472472757315231,-0.0016954662997389766,0.01562198228165401,-0.9998406677983578,1.0,0.0,0.0,0.0,1.0,0.0,0.0,0.0,1.0,0.0013207269366830587,0.0013549292925745249,-0.0005415362538769843,1.2184696791468346e-07,0.0,0.0,0.0,1.2184696791468346e-07,0.0,0.0,0.0,1.2184696791468346e-07,-0.025673113763332367,0.18787826597690702,9.77164363861084,8.999999999999999e-08,0.0,0.0,0.0,8.999999999999999e-08,0.0,0.0,0.0,8.999999999999999e-08
1758793484074173016,123199,1758793484071250304,base_link,-0.00847029067008803,-0.0017048594493285882,0.01562712419717236,-0.9998405835046608,1.0,0.0,0.0,0.0,1.0,0.0,0.0,0.0,1.0,-0.00043314765207469463,0.0011721674818545582,0.001215287367813289,1.2184696791468346e-07,0.0,0.0,0.0,1.2184696791468346e-07,0.0,0.0,0.0,1.2184696791468346e-07,-0.04901360720396042,0.16024956107139707,9.772056579589844,8.999999999999999e-08,0.0,0.0,0.0,8.999999999999999e-08,0.0,0.0,0.0,8.999999999999999e-08
1758793484085131832,123200,1758793484082250304,base_link,-0.008457699299095402,-0.0016910925763892093,0.015614859464255695,-0.9998408785326004,1.0,0.0,0.0,0.0,1.0,0.0,0.0,0.0,1.0,-0.0012305269483476877,-0.0022469451650977135,-0.00025227013975381824,1.2184696791468346e-07,0.0,0.0,0.0,1.2184696791468346e-07,0.0,0.0,0.0,1.2184696791468346e-07,-0.00041043199598789215,0.14795336127281308,9.819378852844238,8.999999999999999e-08,0.0,0.0,0.0,8.999999999999999e-08,0.0,0.0,0.0,8.999999999999999e-08
1758793484091172120,123201,1758793484086250304,base_link,-0.00847243620809504,-0.0016822878363174803,0.01562792498729407,-0.9998406256515093,1.0,0.0,0.0,0.0,1.0,0.0,0.0,0.0,1.0,0.0009013337548822165,-0.0020200484432280064,-0.0013935890747234223,1.2184696791468346e-07,0.0,0.0,0.0,1.2184696791468346e-07,0.0,0.0,0.0,1.2184696791468346e-07,-0.03129543736577034,0.17341192066669583,9.826805114746094,8.999999999999999e-08,0.0,0.0,0.0,8.999999999999999e-08,0.0,0.0,0.0,8.999999999999999e-08
1758793484098249528,123202,1758793484095250304,base_link,-0.008469927482791878,-0.0016869427581721562,0.015609801842434368,-0.9998408785326003,1.0,0.0,0.0,0.0,1.0,0.0,0.0,0.0,1.0,0.0009717601351439953,-0.0006281184032559393,0.0017450228333473206,1.2184696791468346e-07,0.0,0.0,0.0,1.2184696791468346e-07,0.0,0.0,0.0,1.2184696791468346e-07,-0.07334692031145096,0.19721347093582273,9.819323539733887,8.999999999999999e-08,0.0,0.0,0.0,8.999999999999999e-08,0.0,0.0,0.0,8.999999999999999e-08
1758793484107649176,123203,1758793484101250304,base_link,-0.008451584713338782,-0.0016775061446450178,0.01562396318353403,-0.9998408785326003,1.0,0.0,0.0,0.0,1.0,0.0,0.0,0.0,1.0,-0.0032921608071774244,-0.002166273072361946,-0.0009115728316828606,1.2184696791468346e-07,0.0,0.0,0.0,1.2184696791468346e-07,0.0,0.0,0.0,1.2184696791468346e-07,-0.022085994482040405,0.14366447925567746,9.781770706176758,8.999999999999999e-08,0.0,0.0,0.0,8.999999999999999e-08,0.0,0.0,0.0,8.999999999999999e-08
1758793484112019352,123204,1758793484105255680,base_link,-0.008441367066025175,-0.0016783559963325697,0.015628177868385135,-0.9998408785326004,1.0,0.0,0.0,0.0,1.0,0.0,0.0,0.0,1.0,-0.004724457859992981,-0.0012799310497939589,-0.0022746617905795574,1.2184696791468346e-07,0.0,0.0,0.0,1.2184696791468346e-07,0.0,0.0,0.0,1.2184696791468346e-07,-0.032704271376132965,0.20451027154922605,9.799474716186523,8.999999999999999e-08,0.0,0.0,0.0,8.999999999999999e-08,0.0,0.0,0.0,8.999999999999999e-08
1758793484117298264,123205,1758793484114255680,base_link,-0.008433350603729503,-0.0016650836903186856,0.015630959560386865,-0.9998408785326003,1.0,0.0,0.0,0.0,1.0,0.0,0.0,0.0,1.0,-0.0029244443867355585,-0.0013409275561571121,-0.0005837894277647135,1.2184696791468346e-07,0.0,0.0,0.0,1.2184696791468346e-07,0.0,0.0,0.0,1.2184696791468346e-07,-0.02771204710006714,0.20967181026935697,9.83664608001709,8.999999999999999e-08,0.0,0.0,0.0,8.999999999999999e-08,0.0,0.0,0.0,8.999999999999999e-08
1758793484124443000,123206,1758793484116255680,base_link,-0.008424063150533422,-0.0016655696961655768,0.01561894770856121,-0.9998411735605399,1.0,0.0,0.0,0.0,1.0,0.0,0.0,0.0,1.0,-0.002365718362852931,-0.0006781048141419888,-0.00020250875968486063,1.2184696791468346e-07,0.0,0.0,0.0,1.2184696791468346e-07,0.0,0.0,0.0,1.2184696791468346e-07,-0.06688835471868515,0.19080688059330106,9.827152252197266,8.999999999999999e-08,0.0,0.0,0.0,8.999999999999999e-08,0.0,0.0,0.0,8.999999999999999e-08
1758793484128314968,123207,1758793484125255680,base_link,-0.008413836612868958,-0.0016647320275514229,0.01562847289632471,-0.9998410892668429,1.0,0.0,0.0,0.0,1.0,0.0,0.0,0.0,1.0,-0.0007893561851233244,0.00048644375056028366,-0.00010199286043643957,1.2184696791468346e-07,0.0,0.0,0.0,1.2184696791468346e-07,0.0,0.0,0.0,1.2184696791468346e-07,-0.04894173517823219,0.12012704461813094,9.80331039428711,8.999999999999999e-08,0.0,0.0,0.0,8.999999999999999e-08,0.0,0.0,0.0,8.999999999999999e-08
1758793484135186488,123208,1758793484131255680,base_link,-0.008407986762004547,-0.0016601729239226586,0.015628683630567266,-0.9998411314136915,1.0,0.0,0.0,0.0,1.0,0.0,0.0,0.0,1.0,-0.0004184527788311243,-0.0003697909414768219,0.00012993812561035162,1.2184696791468346e-07,0.0,0.0,0.0,1.2184696791468346e-07,0.0,0.0,0.0,1.2184696791468346e-07,-0.00735770259052515,0.17242300510406613,9.799914360046387,8.999999999999999e-08,0.0,0.0,0.0,8.999999999999999e-08,0.0,0.0,0.0,8.999999999999999e-08
1758793484146341624,123209,1758793484135255680,base_link,-0.008417496803244325,-0.001659636868693161,0.015621012904138254,-0.9998412157073884,1.0,0.0,0.0,0.0,1.0,0.0,0.0,0.0,1.0,0.004505505319684744,-0.0017773355357348915,0.0037391404621303086,1.2184696791468346e-07,0.0,0.0,0.0,1.2184696791468346e-07,0.0,0.0,0.0,1.2184696791468346e-07,-0.04850072041153908,0.15145714581012845,9.799686431884766,8.999999999999999e-08,0.0,0.0,0.0,8.999999999999999e-08,0.0,0.0,0.0,8.999999999999999e-08
1758793484151304376,123210,1758793484146255680,base_link,-0.008424534339128884,-0.0016574310738636728,0.015625986232262558,-0.9998410471199944,1.0,0.0,0.0,0.0,1.0,0.0,0.0,0.0,1.0,0.0007365092169493437,0.0006756999064236878,-0.001081708469428122,1.2184696791468346e-07,0.0,0.0,0.0,1.2184696791468346e-07,0.0,0.0,0.0,1.2184696791468346e-07,-0.0269174762070179,0.15855976939201474,9.80495834350586,8.999999999999999e-08,0.0,0.0,0.0,8.999999999999999e-08,0.0,0.0,0.0,8.999999999999999e-08
1758793484155295448,123211,1758793484150255680,base_link,-0.008416309118224179,-0.0016601851069960563,0.01562640770074767,-0.9998411314136915,1.0,0.0,0.0,0.0,1.0,0.0,0.0,0.0,1.0,-0.0014919142704457045,0.0010758698917925356,-0.0011486621806398036,1.2184696791468346e-07,0.0,0.0,0.0,1.2184696791468346e-07,0.0,0.0,0.0,1.2184696791468346e-07,0.015775330364704132,0.19410395622253537,9.807332038879395,8.999999999999999e-08,0.0,0.0,0.0,8.999999999999999e-08,0.0,0.0,0.0,8.999999999999999e-08
1758793484163067576,123212,1758793484159255680,base_link,-0.008409935395203669,-0.0016484001237534514,0.015616629631893158,-0.9998413842947824,1.0,0.0,0.0,0.0,1.0,0.0,0.0,0.0,1.0,0.0020345058292150497,0.0003333175554871562,0.0023899637162685394,1.2184696791468346e-07,0.0,0.0,0.0,1.2184696791468346e-07,0.0,0.0,0.0,1.2184696791468346e-07,-0.04053737223148346,0.16270358860492826,9.784253120422363,8.999999999999999e-08,0.0,0.0,0.0,8.999999999999999e-08,0.0,0.0,0.0,8.999999999999999e-08
1758793484169414168,123213,1758793484161255680,base_link,-0.0084204563022632,-0.0016567234677898452,0.01560634580085646,-0.9998413842947824,1.0,0.0,0.0,0.0,1.0,0.0,0.0,0.0,1.0,0.002171022817492485,0.00016450579278171092,0.0023315923754125834,1.2184696791468346e-07,0.0,0.0,0.0,1.2184696791468346e-07,0.0,0.0,0.0,1.2184696791468346e-07,-0.060546908527612686,0.17111171782016873,9.794296264648438,8.999999999999999e-08,0.0,0.0,0.0,8.999999999999999e-08,0.0,0.0,0.0,8.999999999999999e-08
1758793484173511064,123214,1758793484170255680,base_link,-0.008424302202189819,-0.0016498943612420643,0.015609085346009677,-0.999841342147934,1.0,0.0,0.0,0.0,1.0,0.0,0.0,0.0,1.0,0.004269797820597887,0.00024297018535435192,-0.0007059031631797552,1.2184696791468346e-07,0.0,0.0,0.0,1.2184696791468346e-07,0.0,0.0,0.0,1.2184696791468346e-07,-0.03250836953520775,0.13648293912410855,9.792584419250488,8.999999999999999e-08,0.0,0.0,0.0,8.999999999999999e-08,0.0,0.0,0.0,8.999999999999999e-08
1758793484179123160,123215,1758793484176255680,base_link,-0.008423612706089961,-0.0016631106909727696,0.015635595713723027,-0.9998409628262973,1.0,0.0,0.0,0.0,1.0,0.0,0.0,0.0,1.0,0.0010261579882353544,0.0005635453853756185,-0.0034163938835263252,1.2184696791468346e-07,0.0,0.0,0.0,1.2184696791468346e-07,0.0,0.0,0.0,1.2184696791468346e-07,0.009462551213800907,0.20053303241729856,9.769960403442383,8.999999999999999e-08,0.0,0.0,0.0,8.999999999999999e-08,0.0,0.0,0.0,8.999999999999999e-08
1758793484187517560,123216,1758793484180255680,base_link,-0.008427472764723502,-0.0016542694016808475,0.0156103076046165,-0.9998413000010854,1.0,0.0,0.0,0.0,1.0,0.0,0.0,0.0,1.0,9.075505658984184e-05,-0.0011413949541747568,0.0023042187094688416,1.2184696791468346e-07,0.0,0.0,0.0,1.2184696791468346e-07,0.0,0.0,0.0,1.2184696791468346e-07,-0.054979171603918076,0.17135336995124936,9.789122581481934,8.999999999999999e-08,0.0,0.0,0.0,8.999999999999999e-08,0.0,0.0,0.0,8.999999999999999e-08
1758793484196104696,123217,1758793484191255680,base_link,-0.0084278478058208,-0.0016438528739258307,0.015623583861897428,-0.9998410892668429,1.0,0.0,0.0,0.0,1.0,0.0,0.0,0.0,1.0,-0.00042843841947615147,-0.0006353193894028667,-0.0029584127478301525,1.2184696791468346e-07,0.0,0.0,0.0,1.2184696791468346e-07,0.0,0.0,0.0,1.2184696791468346e-07,-0.04213641956448555,0.14224949479103208,9.76755428314209,8.999999999999999e-08,0.0,0.0,0.0,8.999999999999999e-08,0.0,0.0,0.0,8.999999999999999e-08
1758793484204152248,123218,1758793484195255680,base_link,-0.008414717745420639,-0.0016568848111943007,0.01562682916923278,-0.9998411314136915,1.0,0.0,0.0,0.0,1.0,0.0,0.0,0.0,1.0,-0.004663251340389252,-0.0005753384903073311,0.00032925204141065484,1.2184696791468346e-07,0.0,0.0,0.0,1.2184696791468346e-07,0.0,0.0,0.0,1.2184696791468346e-07,-0.030810005962848663,0.20697669684887052,9.841456413269043,8.999999999999999e-08,0.0,0.0,0.0,8.999999999999999e-08,0.0,0.0,0.0,8.999999999999999e-08
1758793484215476184,123219,1758793484210255936,base_link,-0.008406448072761646,-0.0016442397688242706,0.015614311555225049,-0.999841426441631,1.0,0.0,0.0,0.0,1.0,0.0,0.0,0.0,1.0,0.0019563459791243076,0.00045211822725832457,-0.0005715596489608289,1.2184696791468346e-07,0.0,0.0,0.0,1.2184696791468346e-07,0.0,0.0,0.0,1.2184696791468346e-07,-0.03612867742776871,0.11861532926559568,9.767293930053711,8.999999999999999e-08,0.0,0.0,0.0,8.999999999999999e-08,0.0,0.0,0.0,8.999999999999999e-08
1758793484224270136,123220,1758793484219255936,base_link,-0.00841217444653081,-0.001645257549361358,0.01562556476377745,-0.9998412157073884,1.0,0.0,0.0,0.0,1.0,0.0,0.0,0.0,1.0,0.00014475220814347267,-0.0002832268364727499,-0.001570591819472611,1.2184696791468346e-07,0.0,0.0,0.0,1.2184696791468346e-07,0.0,0.0,0.0,1.2184696791468346e-07,-0.048879001289606094,0.19046774506569028,9.823762893676758,8.999999999999999e-08,0.0,0.0,0.0,8.999999999999999e-08,0.0,0.0,0.0,8.999999999999999e-08
1758793484232137880,123221,1758793484225255936,base_link,-0.00838211353610267,-0.0016353981502600947,0.015625901938565535,-0.9998414685884794,1.0,0.0,0.0,0.0,1.0,0.0,0.0,0.0,1.0,-0.004867401905357838,-0.0026766499504446983,-0.0009791672928258772,1.2184696791468346e-07,0.0,0.0,0.0,1.2184696791468346e-07,0.0,0.0,0.0,1.2184696791468346e-07,-0.0841868594288826,0.12579432129860044,9.762907981872559,8.999999999999999e-08,0.0,0.0,0.0,8.999999999999999e-08,0.0,0.0,0.0,8.999999999999999e-08
1758793484239602904,123222,1758793484235255936,base_link,-0.008383164243865156,-0.0016281340750647915,0.015630664532447287,-0.999841426441631,1.0,0.0,0.0,0.0,1.0,0.0,0.0,0.0,1.0,0.0002282741479575634,-0.0008226046338677407,-0.001127781462855637,1.2184696791468346e-07,0.0,0.0,0.0,1.2184696791468346e-07,0.0,0.0,0.0,1.2184696791468346e-07,-0.01563013717532158,0.1759219318628323,9.785934448242188,8.999999999999999e-08,0.0,0.0,0.0,8.999999999999999e-08,0.0,0.0,0.0,8.999999999999999e-08
1758793484246295512,123223,1758793484240255936,base_link,-0.008382437540000596,-0.0016264050664590826,0.015626702728687245,-0.999841510735328,1.0,0.0,0.0,0.0,1.0,0.0,0.0,0.0,1.0,0.0004768194630742073,0.00039671896956861014,-0.00028413394466042524,1.2184696791468346e-07,0.0,0.0,0.0,1.2184696791468346e-07,0.0,0.0,0.0,1.2184696791468346e-07,-0.03810535743832588,0.1894363760948193,9.77787971496582,8.999999999999999e-08,0.0,0.0,0.0,8.999999999999999e-08,0.0,0.0,0.0,8.999999999999999e-08
1758793484253125368,123224,1758793484249255936,base_link,-0.00838160546901476,-0.001629517677076063,0.01563041165135622,-0.999841426441631,1.0,0.0,0.0,0.0,1.0,0.0,0.0,0.0,1.0,-0.00038443668745458126,0.0009232216980308295,0.0007648938335478305,1.2184696791468346e-07,0.0,0.0,0.0,1.2184696791468346e-07,0.0,0.0,0.0,1.2184696791468346e-07,-0.06647307425737381,0.18611375987529874,9.814571380615234,8.999999999999999e-08,0.0,0.0,0.0,8.999999999999999e-08,0.0,0.0,0.0,8.999999999999999e-08
1758793484261361752,123225,1758793484255255936,base_link,-0.00837426994174034,-0.0016379885350822445,0.015625522616928934,-0.999841510735328,1.0,0.0,0.0,0.0,1.0,0.0,0.0,0.0,1.0,-0.000939944526180625,0.000994140515103936,-0.0015982313780114057,1.2184696791468346e-07,0.0,0.0,0.0,1.2184696791468346e-07,0.0,0.0,0.0,1.2184696791468346e-07,-0.042096011340618134,0.10583464056253553,9.783671379089355,8.999999999999999e-08,0.0,0.0,0.0,8.999999999999999e-08,0.0,0.0,0.0,8.999999999999999e-08
1758793484270918808,123226,1758793484265255936,base_link,-0.008384735860333456,-0.0016288831694426216,0.01564208632839373,-0.9998412157073885,1.0,0.0,0.0,0.0,1.0,0.0,0.0,0.0,1.0,0.002565174363553524,0.0008222605101764201,-0.0010135817574337125,1.2184696791468346e-07,0.0,0.0,0.0,1.2184696791468346e-07,0.0,0.0,0.0,1.2184696791468346e-07,-0.013470347039401531,0.2236732244491589,9.841464042663574,8.999999999999999e-08,0.0,0.0,0.0,8.999999999999999e-08,0.0,0.0,0.0,8.999999999999999e-08
1758793484276224280,123227,1758793484270255936,base_link,-0.008370723679564854,-0.0016387833983033799,0.015636017182208136,-0.9998413842947824,1.0,0.0,0.0,0.0,1.0,0.0,0.0,0.0,1.0,-0.002231512451544404,0.000951135065406561,0.0005315340822562574,1.2184696791468346e-07,0.0,0.0,0.0,1.2184696791468346e-07,0.0,0.0,0.0,1.2184696791468346e-07,-0.0578567199409008,0.13594871759414792,9.789996147155762,8.999999999999999e-08,0.0,0.0,0.0,8.999999999999999e-08,0.0,0.0,0.0,8.999999999999999e-08
1758793484283314616,123228,1758793484279255936,base_link,-0.00837209773268076,-0.0016402588672735153,0.015634584189358758,-0.9998413842947824,1.0,0.0,0.0,0.0,1.0,0.0,0.0,0.0,1.0,-0.0012417675461620092,0.00016461405903100932,-0.0029865093529224396,1.2184696791468346e-07,0.0,0.0,0.0,1.2184696791468346e-07,0.0,0.0,0.0,1.2184696791468346e-07,-0.039613183587789536,0.1096324548125279,9.796077728271484,8.999999999999999e-08,0.0,0.0,0.0,8.999999999999999e-08,0.0,0.0,0.0,8.999999999999999e-08
1758793484289216632,123229,1758793484285255936,base_link,-0.008379151073633509,-0.0016449664726888296,0.01563584859481409,-0.9998413000010854,1.0,0.0,0.0,0.0,1.0,0.0,0.0,0.0,1.0,0.002576013095676899,0.0020523217972368,0.001057872315868735,1.2184696791468346e-07,0.0,0.0,0.0,1.2184696791468346e-07,0.0,0.0,0.0,1.2184696791468346e-07,-0.02977384626865387,0.25303351879119995,9.815136909484863,8.999999999999999e-08,0.0,0.0,0.0,8.999999999999999e-08,0.0,0.0,0.0,8.999999999999999e-08
1758793484303181592,123230,1758793484295255936,base_link,-0.008385653212833076,-0.0016477491525073106,0.015621055050986763,-0.999841510735328,1.0,0.0,0.0,0.0,1.0,0.0,0.0,0.0,1.0,0.0036802981048822403,0.00035005644895136405,0.0038143666461110115,1.2184696791468346e-07,0.0,0.0,0.0,1.2184696791468346e-07,0.0,0.0,0.0,1.2184696791468346e-07,-0.046938054263591766,0.0971117764711392,9.801015853881836,8.999999999999999e-08,0.0,0.0,0.0,8.999999999999999e-08,0.0,0.0,0.0,8.999999999999999e-08
1758793484306466008,123231,1758793484300255936,base_link,-0.008389065461201188,-0.0016511982793678702,0.015614269408376538,-0.9998415528821766,1.0,0.0,0.0,0.0,1.0,0.0,0.0,0.0,1.0,0.0003606281243264675,0.0006733336485922334,-0.0015472181839868426,1.2184696791468346e-07,0.0,0.0,0.0,1.2184696791468346e-07,0.0,0.0,0.0,1.2184696791468346e-07,-0.006064137443900108,0.15367808938026548,9.793886184692383,8.999999999999999e-08,0.0,0.0,0.0,8.999999999999999e-08,0.0,0.0,0.0,8.999999999999999e-08
1758793484315183384,123232,1758793484310255936,base_link,-0.008362975903428436,-0.0016506813219291036,0.015631001707235373,-0.999841510735328,1.0,0.0,0.0,0.0,1.0,0.0,0.0,0.0,1.0,-0.003792383009567857,-0.0007074000313878062,-0.002068852074444294,1.2184696791468346e-07,0.0,0.0,0.0,1.2184696791468346e-07,0.0,0.0,0.0,1.2184696791468346e-07,-0.048901621252298355,0.1584063023328793,9.820040702819824,8.999999999999999e-08,0.0,0.0,0.0,8.999999999999999e-08,0.0,0.0,0.0,8.999999999999999e-08
1758793484324240824,123233,1758793484315255936,base_link,-0.008350113541370772,-0.001644804141467612,0.015611066247889695,-0.9998419743506616,1.0,0.0,0.0,0.0,1.0,0.0,0.0,0.0,1.0,-0.0034839173313230276,-0.0011574109084904192,0.0026406296528875828,1.2184696791468346e-07,0.0,0.0,0.0,1.2184696791468346e-07,0.0,0.0,0.0,1.2184696791468346e-07,-0.0424918532371521,0.13070642948150754,9.800033569335938,8.999999999999999e-08,0.0,0.0,0.0,8.999999999999999e-08,0.0,0.0,0.0,8.999999999999999e-08
1758793484329388568,123234,1758793484325255936,base_link,-0.008354801061178594,-0.0016395641028175935,0.01561818906528801,-0.9998417636164191,1.0,0.0,0.0,0.0,1.0,0.0,0.0,0.0,1.0,9.173434227705002e-05,-0.0009324839338660241,-0.0008688989328220486,1.2184696791468346e-07,0.0,0.0,0.0,1.2184696791468346e-07,0.0,0.0,0.0,1.2184696791468346e-07,-0.01124297920614481,0.16844749450683713,9.824454307556152,8.999999999999999e-08,0.0,0.0,0.0,8.999999999999999e-08,0.0,0.0,0.0,8.999999999999999e-08
1758793484339165112,123235,1758793484330255936,base_link,-0.00836075035226371,-0.0016276134956312311,0.015613257884012272,-0.9998418057632676,1.0,0.0,0.0,0.0,1.0,0.0,0.0,0.0,1.0,-0.001501706661656499,-0.001823299564421177,0.0007775489939376714,1.2184696791468346e-07,0.0,0.0,0.0,1.2184696791468346e-07,0.0,0.0,0.0,1.2184696791468346e-07,-0.033518992364406586,0.19731180369854093,9.821187019348145,8.999999999999999e-08,0.0,0.0,0.0,8.999999999999999e-08,0.0,0.0,0.0,8.999999999999999e-08
1758793484343483896,123236,1758793484339255936,base_link,-0.008350245908816877,-0.0016223115537974623,0.015607568059463277,-0.9998420164975101,1.0,0.0,0.0,0.0,1.0,0.0,0.0,0.0,1.0,0.003223372157663107,-0.00015855953097343393,0.004236081149429083,1.2184696791468346e-07,0.0,0.0,0.0,1.2184696791468346e-07,0.0,0.0,0.0,1.2184696791468346e-07,-0.05510742589831352,0.1572614163160336,9.805721282958984,8.999999999999999e-08,0.0,0.0,0.0,8.999999999999999e-08,0.0,0.0,0.0,8.999999999999999e-08
1758793484347470264,123237,1758793484340255936,base_link,-0.008366980183309225,-0.0016353322958092963,0.01560192038176285,-0.9998419322038131,1.0,0.0,0.0,0.0,1.0,0.0,0.0,0.0,1.0,0.004005036316812038,0.0007672675419598821,0.002995336428284645,1.2184696791468346e-07,0.0,0.0,0.0,1.2184696791468346e-07,0.0,0.0,0.0,1.2184696791468346e-07,-0.023704152554273605,0.12170053273439528,9.82016658782959,8.999999999999999e-08,0.0,0.0,0.0,8.999999999999999e-08,0.0,0.0,0.0,8.999999999999999e-08
1758793484355640056,123238,1758793484349255936,base_link,-0.008372342052693221,-0.0016266763867963717,0.015598295752790899,-0.9998420164975101,1.0,0.0,0.0,0.0,1.0,0.0,0.0,0.0,1.0,0.00177811982575804,-0.0018369429744780064,-0.00011563685256987787,1.2184696791468346e-07,0.0,0.0,0.0,1.2184696791468346e-07,0.0,0.0,0.0,1.2184696791468346e-07,-0.016402799636125565,0.2064875066280377,9.810511589050293,8.999999999999999e-08,0.0,0.0,0.0,8.999999999999999e-08,0.0,0.0,0.0,8.999999999999999e-08
1758793484363222776,123239,1758793484360255936,base_link,-0.008365838267132384,-0.0016232861996692768,0.015597284228426635,-0.9998421007912072,1.0,0.0,0.0,0.0,1.0,0.0,0.0,0.0,1.0,-0.0024987703654915094,-0.00038576079532504087,-0.0002656001597642898,1.2184696791468346e-07,0.0,0.0,0.0,1.2184696791468346e-07,0.0,0.0,0.0,1.2184696791468346e-07,-0.051816489547491074,0.15674082934856534,9.791410446166992,8.999999999999999e-08,0.0,0.0,0.0,8.999999999999999e-08,0.0,0.0,0.0,8.999999999999999e-08
1758793484373375160,123240,1758793484369255936,base_link,-0.0083646186427036,-0.0016322219900980941,0.015598422193336433,-0.9998420586443586,1.0,0.0,0.0,0.0,1.0,0.0,0.0,0.0,1.0,-0.0012199615593999624,0.0028575588949024673,-0.0036853461060673003,1.2184696791468346e-07,0.0,0.0,0.0,1.2184696791468346e-07,0.0,0.0,0.0,1.2184696791468346e-07,-0.004799646325409412,0.1450236290693295,9.824165344238281,8.999999999999999e-08,0.0,0.0,0.0,8.999999999999999e-08,0.0,0.0,0.0,8.999999999999999e-08
1758793484379113080,123241,1758793484375255936,base_link,-0.00834975858588097,-0.0016352374654001471,0.01561856838692461,-0.9998418900569646,1.0,0.0,0.0,0.0,1.0,0.0,0.0,0.0,1.0,-0.0033556765411049128,0.0004954400938004253,-0.0019594950135797262,1.2184696791468346e-07,0.0,0.0,0.0,1.2184696791468346e-07,0.0,0.0,0.0,1.2184696791468346e-07,-0.04199915751814842,0.2063685506582272,9.801189422607422,8.999999999999999e-08,0.0,0.0,0.0,8.999999999999999e-08,0.0,0.0,0.0,8.999999999999999e-08
1758793484389243448,123242,1758793484385255936,base_link,-0.008336963066090865,-0.0016441074013781663,0.01559319598412106,-0.9998423115254497,1.0,0.0,0.0,0.0,1.0,0.0,0.0,0.0,1.0,-0.002228976460173726,-4.0389597415923605e-05,0.0038341234903782606,1.2184696791468346e-07,0.0,0.0,0.0,1.2184696791468346e-07,0.0,0.0,0.0,1.2184696791468346e-07,-0.05224023014307022,0.08770545572042585,9.79955768585205,8.999999999999999e-08,0.0,0.0,0.0,8.999999999999999e-08,0.0,0.0,0.0,8.999999999999999e-08
1758793484395159224,123243,1758793484390255936,base_link,-0.008351649596435641,-0.0016478574830788737,0.015616882512984223,-0.9998418057632675,1.0,0.0,0.0,0.0,1.0,0.0,0.0,0.0,1.0,0.0004888714756816626,0.0017845018301159143,-0.00048152729868888877,1.2184696791468346e-07,0.0,0.0,0.0,1.2184696791468346e-07,0.0,0.0,0.0,1.2184696791468346e-07,-0.0090464623644948,0.1839648187160504,9.815804481506348,8.999999999999999e-08,0.0,0.0,0.0,8.999999999999999e-08,0.0,0.0,0.0,8.999999999999999e-08
1758793484403512120,123244,1758793484394255936,base_link,-0.008336162275969158,-0.0016434165881892926,0.015606767269341567,-0.9998421429380556,1.0,0.0,0.0,0.0,1.0,0.0,0.0,0.0,1.0,-0.0015801272820681334,-0.0017347582615911963,-0.001356985419988632,1.2184696791468346e-07,0.0,0.0,0.0,1.2184696791468346e-07,0.0,0.0,0.0,1.2184696791468346e-07,-0.03110221028327942,0.18745678663253904,9.802083969116211,8.999999999999999e-08,0.0,0.0,0.0,8.999999999999999e-08,0.0,0.0,0.0,8.999999999999999e-08
1758793484409117272,123245,1758793484405255936,base_link,-0.008338569256145836,-0.0016322081606634264,0.015606387947704968,-0.9998421850849042,1.0,0.0,0.0,0.0,1.0,0.0,0.0,0.0,1.0,0.00044921482913196087,-0.001162789762020111,-2.9509770683944083e-05,1.2184696791468346e-07,0.0,0.0,0.0,1.2184696791468346e-07,0.0,0.0,0.0,1.2184696791468346e-07,-0.05219372361898422,0.13998782634735227,9.81463623046875,8.999999999999999e-08,0.0,0.0,0.0,8.999999999999999e-08,0.0,0.0,0.0,8.999999999999999e-08
1758793484413122680,123246,1758793484409255936,base_link,-0.008322832018038573,-0.0016244024326103072,0.015626702728687242,-0.9998420164975101,1.0,0.0,0.0,0.0,1.0,0.0,0.0,0.0,1.0,-0.001878528157249093,-0.0036840289831161503,-0.0032390884589403863,1.2184696791468346e-07,0.0,0.0,0.0,1.2184696791468346e-07,0.0,0.0,0.0,1.2184696791468346e-07,-0.01104747224599123,0.13666506111621976,9.815093040466309,8.999999999999999e-08,0.0,0.0,0.0,8.999999999999999e-08,0.0,0.0,0.0,8.999999999999999e-08
1758793484425293624,123247,1758793484420255936,base_link,-0.008322067777137059,-0.0016341531718677535,0.015623668155594447,-0.9998420164975101,1.0,0.0,0.0,0.0,1.0,0.0,0.0,0.0,1.0,-0.0003657916095107794,0.0015869128983467817,0.000666109495796263,1.2184696791468346e-07,0.0,0.0,0.0,1.2184696791468346e-07,0.0,0.0,0.0,1.2184696791468346e-07,-0.063556008040905,0.17128200829029203,9.810808181762695,8.999999999999999e-08,0.0,0.0,0.0,8.999999999999999e-08,0.0,0.0,0.0,8.999999999999999e-08
1758793484431996216,123248,1758793484424255936,base_link,-0.00833040001152431,-0.0016262575524892944,0.015604112017885426,-0.9998422693786012,1.0,0.0,0.0,0.0,1.0,0.0,0.0,0.0,1.0,0.0002878396771848202,0.0010019282344728713,0.003053016494959593,1.2184696791468346e-07,0.0,0.0,0.0,1.2184696791468346e-07,0.0,0.0,0.0,1.2184696791468346e-07,-0.06001027300953865,0.1484638750553143,9.802705764770508,8.999999999999999e-08,0.0,0.0,0.0,8.999999999999999e-08,0.0,0.0,0.0,8.999999999999999e-08
1758793484436248248,123249,1758793484433255936,base_link,-0.008336665733245511,-0.0016320142193058257,0.015614185114679513,-0.9998420586443586,1.0,0.0,0.0,0.0,1.0,0.0,0.0,0.0,1.0,0.0021222191862761974,-0.0016029644757509234,-0.0013684439472854135,1.2184696791468346e-07,0.0,0.0,0.0,1.2184696791468346e-07,0.0,0.0,0.0,1.2184696791468346e-07,-0.016243577003479004,0.12000155448913694,9.786625862121582,8.999999999999999e-08,0.0,0.0,0.0,8.999999999999999e-08,0.0,0.0,0.0,8.999999999999999e-08
1758793484443195800,123250,1758793484439255936,base_link,-0.008334234386922039,-0.0016214162625388597,0.01561726183462082,-0.9998420164975101,1.0,0.0,0.0,0.0,1.0,0.0,0.0,0.0,1.0,-0.0003958579618483782,-0.0005113906227052213,-0.0004887395771220325,1.2184696791468346e-07,0.0,0.0,0.0,1.2184696791468346e-07,0.0,0.0,0.0,1.2184696791468346e-07,-0.016004908829927444,0.1990014463663113,9.794670104980469,8.999999999999999e-08,0.0,0.0,0.0,8.999999999999999e-08,0.0,0.0,0.0,8.999999999999999e-08
1758793484456329432,123251,1758793484450255936,base_link,-0.008335997639842163,-0.0016276793500820293,0.015606472241401988,-0.9998421850849042,1.0,0.0,0.0,0.0,1.0,0.0,0.0,0.0,1.0,-5.0876056775450706e-05,0.0008091137278825047,0.001512164599262178,1.2184696791468346e-07,0.0,0.0,0.0,1.2184696791468346e-07,0.0,0.0,0.0,1.2184696791468346e-07,-0.04686398059129715,0.13702443242073178,9.812939643859863,8.999999999999999e-08,0.0,0.0,0.0,8.999999999999999e-08,0.0,0.0,0.0,8.999999999999999e-08
1758793484459354872,123252,1758793484454255936,base_link,-0.008315088851713712,-0.001639926960841492,0.015611024101041183,-0.9998422693786012,1.0,0.0,0.0,0.0,1.0,0.0,0.0,0.0,1.0,-0.0024887181352823973,0.0014448589645326138,-0.00038438185583800094,1.2184696791468346e-07,0.0,0.0,0.0,1.2184696791468346e-07,0.0,0.0,0.0,1.2184696791468346e-07,-0.03389107435941696,0.17476841807365537,9.838815689086914,8.999999999999999e-08,0.0,0.0,0.0,8.999999999999999e-08,0.0,0.0,0.0,8.999999999999999e-08
1758793484470493304,123253,1758793484465255936,base_link,-0.008321892933570189,-0.0016206974612083963,0.015600993151095607,-0.9998423536722982,1.0,0.0,0.0,0.0,1.0,0.0,0.0,0.0,1.0,0.0003018628340214491,-0.0015686294063925743,0.0002586714690551164,1.2184696791468346e-07,0.0,0.0,0.0,1.2184696791468346e-07,0.0,0.0,0.0,1.2184696791468346e-07,-0.06418145447969437,0.19332873821258664,9.822324752807617,8.999999999999999e-08,0.0,0.0,0.0,8.999999999999999e-08,0.0,0.0,0.0,8.999999999999999e-08
1758793484475203768,123254,1758793484469255936,base_link,-0.008303448089718356,-0.0016325239327550042,0.015594207508485324,-0.9998425644065407,1.0,0.0,0.0,0.0,1.0,0.0,0.0,0.0,1.0,-0.0004674105439335108,0.0013321905862540009,0.0011464157141745088,1.2184696791468346e-07,0.0,0.0,0.0,1.2184696791468346e-07,0.0,0.0,0.0,1.2184696791468346e-07,-0.031093891710042953,0.12026598304510237,9.805679321289062,8.999999999999999e-08,0.0,0.0,0.0,8.999999999999999e-08,0.0,0.0,0.0,8.999999999999999e-08
1758793484483320536,123255,1758793484480255936,base_link,-0.008296690105977436,-0.0016211179418767437,0.015599728745640274,-0.9998426065533893,1.0,0.0,0.0,0.0,1.0,0.0,0.0,0.0,1.0,-0.0022812269162386656,-0.0005559762939810753,0.00034761935239657765,1.2184696791468346e-07,0.0,0.0,0.0,1.2184696791468346e-07,0.0,0.0,0.0,1.2184696791468346e-07,-0.04720913618803024,0.19360244274139524,9.848002433776855,8.999999999999999e-08,0.0,0.0,0.0,8.999999999999999e-08,0.0,0.0,0.0,8.999999999999999e-08
1758793484489498872,123256,1758793484484255936,base_link,-0.008305858362617572,-0.0016177422427288242,0.015605671451280279,-0.9998424801128437,1.0,0.0,0.0,0.0,1.0,0.0,0.0,0.0,1.0,-0.0020388078410178423,-0.0014159665443003178,-0.000625609536655247,1.2184696791468346e-07,0.0,0.0,0.0,1.2184696791468346e-07,0.0,0.0,0.0,1.2184696791468346e-07,-0.07981403917074203,0.21467456221580625,9.802786827087402,8.999999999999999e-08,0.0,0.0,0.0,8.999999999999999e-08,0.0,0.0,0.0,8.999999999999999e-08
1758793484499261016,123257,1758793484494255936,base_link,-0.008277298275123123,-0.001608790976504069,0.015590034970482784,-0.9998429437281774,1.0,0.0,0.0,0.0,1.0,0.0,0.0,0.0,1.0,-0.0036159895826131105,-0.002124574966728687,0.00230538914911449,1.2184696791468346e-07,0.0,0.0,0.0,1.2184696791468346e-07,0.0,0.0,0.0,1.2184696791468346e-07,-0.03615476191043854,0.1299639344215405,9.8328857421875,8.999999999999999e-08,0.0,0.0,0.0,8.999999999999999e-08,0.0,0.0,0.0,8.999999999999999e-08
1758793484505745208,123258,1758793484499254656,base_link,-0.00828124295672594,-0.0016039585769044918,0.015604744220613033,-0.9998427329939348,1.0,0.0,0.0,0.0,1.0,0.0,0.0,0.0,1.0,-0.0019930938724428415,0.00020092329941689976,0.000733010470867157,1.2184696791468346e-07,0.0,0.0,0.0,1.2184696791468346e-07,0.0,0.0,0.0,1.2184696791468346e-07,-0.020780030637979507,0.18598464131355405,9.83456039428711,8.999999999999999e-08,0.0,0.0,0.0,8.999999999999999e-08,0.0,0.0,0.0,8.999999999999999e-08
1758793484514453688,123259,1758793484510254656,base_link,-0.0083043716983908,-0.0016011057620959105,0.015583965824297191,-0.9998428594344804,1.0,0.0,0.0,0.0,1.0,0.0,0.0,0.0,1.0,0.002672156784683466,0.00027426658198237457,0.003192952135577798,1.2184696791468346e-07,0.0,0.0,0.0,1.2184696791468346e-07,0.0,0.0,0.0,1.2184696791468346e-07,-0.0485868863761425,0.16157157719135404,9.831731796264648,8.999999999999999e-08,0.0,0.0,0.0,8.999999999999999e-08,0.0,0.0,0.0,8.999999999999999e-08
1758793484520190648,123260,1758793484514254656,base_link,-0.00830089030284935,-0.00161584695163485,0.015589402767755119,-0.9998427329939348,1.0,0.0,0.0,0.0,1.0,0.0,0.0,0.0,1.0,0.0022569112479686737,0.0017407420091331005,0.0006084086489863692,1.2184696791468346e-07,0.0,0.0,0.0,1.2184696791468346e-07,0.0,0.0,0.0,1.2184696791468346e-07,-0.03323332965373993,0.13560815155506253,9.840709686279297,8.999999999999999e-08,0.0,0.0,0.0,8.999999999999999e-08,0.0,0.0,0.0,8.999999999999999e-08
1758793484529231256,123261,1758793484524254656,base_link,-0.00827510532191154,-0.00160951537546285,0.015604196311582445,-0.9998427751407833,1.0,0.0,0.0,0.0,1.0,0.0,0.0,0.0,1.0,-0.00533907487988472,-0.0005184435285627844,-0.0020463026594370604,1.2184696791468346e-07,0.0,0.0,0.0,1.2184696791468346e-07,0.0,0.0,0.0,1.2184696791468346e-07,-0.018624234944581985,0.2091212272644055,9.80930233001709,8.999999999999999e-08,0.0,0.0,0.0,8.999999999999999e-08,0.0,0.0,0.0,8.999999999999999e-08
1758793484537616728,123262,1758793484529254656,base_link,-0.008274628864960014,-0.001621277968192183,0.015593575305757657,-0.9998428594344804,1.0,0.0,0.0,0.0,1.0,0.0,0.0,0.0,1.0,-0.0022855980787426233,0.0013775825500488281,0.00047685141908004864,1.2184696791468346e-07,0.0,0.0,0.0,1.2184696791468346e-07,0.0,0.0,0.0,1.2184696791468346e-07,-0.029883302748203278,0.21837727725505948,9.84256649017334,8.999999999999999e-08,0.0,0.0,0.0,8.999999999999999e-08,0.0,0.0,0.0,8.999999999999999e-08
1758793484543263000,123263,1758793484539254656,base_link,-0.00827752152171133,-0.001618746193831244,0.015595345473395122,-0.9998428594344804,1.0,0.0,0.0,0.0,1.0,0.0,0.0,0.0,1.0,0.0008223564364016056,0.0012985544744879007,7.324502803385241e-05,1.2184696791468346e-07,0.0,0.0,0.0,1.2184696791468346e-07,0.0,0.0,0.0,1.2184696791468346e-07,-0.01731974631547928,0.1309579163789761,9.799431800842285,8.999999999999999e-08,0.0,0.0,0.0,8.999999999999999e-08,0.0,0.0,0.0,8.999999999999999e-08
1758793484549327640,123264,1758793484544254656,base_link,-0.008286680888000606,-0.0016195321667015212,0.015590456438967894,-0.9998428594344804,1.0,0.0,0.0,0.0,1.0,0.0,0.0,0.0,1.0,0.0018223774386569858,4.609068855643286e-05,0.0011180079309269786,1.2184696791468346e-07,0.0,0.0,0.0,1.2184696791468346e-07,0.0,0.0,0.0,1.2184696791468346e-07,-0.015456472523510456,0.18693865835666776,9.830259323120117,8.999999999999999e-08,0.0,0.0,0.0,8.999999999999999e-08,0.0,0.0,0.0,8.999999999999999e-08
1758793484553335736,123265,1758793484549254656,base_link,-0.008288050002032702,-0.001602128810989062,0.015582912153084414,-0.9998429858750258,1.0,0.0,0.0,0.0,1.0,0.0,0.0,0.0,1.0,0.0006077371072024107,-0.003135815728455782,0.0012711680028587584,1.2184696791468346e-07,0.0,0.0,0.0,1.2184696791468346e-07,0.0,0.0,0.0,1.2184696791468346e-07,-0.023699283599853516,0.18362373113632321,9.825032234191895,8.999999999999999e-08,0.0,0.0,0.0,8.999999999999999e-08,0.0,0.0,0.0,8.999999999999999e-08
1758793484563107992,123266,1758793484559254656,base_link,-0.008285500117697794,-0.0016134873866627476,0.015593617452606168,-0.9998428172876318,1.0,0.0,0.0,0.0,1.0,0.0,0.0,0.0,1.0,-0.0004205286968499422,5.8281235396862105e-05,0.0006076975842006505,1.2184696791468346e-07,0.0,0.0,0.0,1.2184696791468346e-07,0.0,0.0,0.0,1.2184696791468346e-07,-0.019783221185207367,0.11919111013412595,9.794726371765137,8.999999999999999e-08,0.0,0.0,0.0,8.999999999999999e-08,0.0,0.0,0.0,8.999999999999999e-08
1758793484576140024,123267,1758793484566254656,base_link,-0.008277166566221525,-0.0016113586415406936,0.015593533158909146,-0.9998429015813288,1.0,0.0,0.0,0.0,1.0,0.0,0.0,0.0,1.0,-0.00364316557534039,-0.0002694125287234785,-0.0013601898681372404,1.2184696791468346e-07,0.0,0.0,0.0,1.2184696791468346e-07,0.0,0.0,0.0,1.2184696791468346e-07,0.0037757204845547676,0.19743390381336332,9.788411140441895,8.999999999999999e-08,0.0,0.0,0.0,8.999999999999999e-08,0.0,0.0,0.0,8.999999999999999e-08
1758793484579310776,123268,1758793484572254656,base_link,-0.00825658079417424,-0.0016033504110513695,0.015592816662484457,-0.9998431123155714,1.0,0.0,0.0,0.0,1.0,0.0,0.0,0.0,1.0,-0.0018556092400103807,-0.001559191849082708,0.003249877132475376,1.2184696791468346e-07,0.0,0.0,0.0,1.2184696791468346e-07,0.0,0.0,0.0,1.2184696791468346e-07,-0.05168319121003151,0.18639111518859983,9.80515193939209,8.999999999999999e-08,0.0,0.0,0.0,8.999999999999999e-08,0.0,0.0,0.0,8.999999999999999e-08
1758793484585467256,123269,1758793484581254656,base_link,-0.008254807333814243,-0.0015988756011196272,0.01557300764368437,-0.9998434494903595,1.0,0.0,0.0,0.0,1.0,0.0,0.0,0.0,1.0,0.0003024179022759199,0.00065161194652319,0.0035753801930695772,1.2184696791468346e-07,0.0,0.0,0.0,1.2184696791468346e-07,0.0,0.0,0.0,1.2184696791468346e-07,-0.030243143439292908,0.12567397952079892,9.785722732543945,8.999999999999999e-08,0.0,0.0,0.0,8.999999999999999e-08,0.0,0.0,0.0,8.999999999999999e-08
1758793484594145432,123270,1758793484586254656,base_link,-0.008247442501309219,-0.0016021396769734433,0.015578655321384796,-0.9998433651966625,1.0,0.0,0.0,0.0,1.0,0.0,0.0,0.0,1.0,-0.0003119793254882097,0.002152504865080118,-0.0005914496723562481,1.2184696791468346e-07,0.0,0.0,0.0,1.2184696791468346e-07,0.0,0.0,0.0,1.2184696791468346e-07,-0.03511931374669075,0.20429898798465848,9.78759765625,8.999999999999999e-08,0.0,0.0,0.0,8.999999999999999e-08,0.0,0.0,0.0,8.999999999999999e-08
1758793484600159736,123271,1758793484596254656,base_link,-0.008252713162278859,-0.0016213767498683806,0.015577559503323507,-0.9998433651966625,1.0,0.0,0.0,0.0,1.0,0.0,0.0,0.0,1.0,0.0001160681713372469,0.003038473892956972,0.00013688241597264967,1.2184696791468346e-07,0.0,0.0,0.0,1.2184696791468346e-07,0.0,0.0,0.0,1.2184696791468346e-07,-0.048112090677022934,0.1816912293434155,9.760714530944824,8.999999999999999e-08,0.0,0.0,0.0,8.999999999999999e-08,0.0,0.0,0.0,8.999999999999999e-08
1758793484606132792,123272,1758793484601253376,base_link,-0.00824268583432806,-0.0016152084927343604,0.015570141657985617,-0.9998435337840564,1.0,0.0,0.0,0.0,1.0,0.0,0.0,0.0,1.0,-0.002564762020483613,-0.0021987897343933582,0.0005258888122625651,1.2184696791468346e-07,0.0,0.0,0.0,1.2184696791468346e-07,0.0,0.0,0.0,1.2184696791468346e-07,-0.03844649717211723,0.13392357528209806,9.80139446258545,8.999999999999999e-08,0.0,0.0,0.0,8.999999999999999e-08,0.0,0.0,0.0,8.999999999999999e-08
1758793484613734264,123273,1758793484610253376,base_link,-0.008245487611937271,-0.001615773853194464,0.015576843006898876,-0.999843407343511,1.0,0.0,0.0,0.0,1.0,0.0,0.0,0.0,1.0,0.0013444165233522654,-0.000893787480890751,-0.0010983808897435663,1.2184696791468346e-07,0.0,0.0,0.0,1.2184696791468346e-07,0.0,0.0,0.0,1.2184696791468346e-07,-0.0037161149084568024,0.1393715590238583,9.816094398498535,8.999999999999999e-08,0.0,0.0,0.0,8.999999999999999e-08,0.0,0.0,0.0,8.999999999999999e-08
1758793484619749400,123274,1758793484616253376,base_link,-0.008256551159671381,-0.0016124323983609597,0.015582153509811214,-0.9998432387561169,1.0,0.0,0.0,0.0,1.0,0.0,0.0,0.0,1.0,0.001361202448606491,-0.00011374102905392647,-5.0896545872092233e-05,1.2184696791468346e-07,0.0,0.0,0.0,1.2184696791468346e-07,0.0,0.0,0.0,1.2184696791468346e-07,-0.057586316019296646,0.177732899785043,9.798486709594727,8.999999999999999e-08,0.0,0.0,0.0,8.999999999999999e-08,0.0,0.0,0.0,8.999999999999999e-08
1758793484630291288,123275,1758793484626253376,base_link,-0.008239811946095223,-0.001612718535949678,0.015585398817146566,-0.9998432809029654,1.0,0.0,0.0,0.0,1.0,0.0,0.0,0.0,1.0,-0.0026635469403117895,-0.00019265478476881997,-0.0012658482883125544,1.2184696791468346e-07,0.0,0.0,0.0,1.2184696791468346e-07,0.0,0.0,0.0,1.2184696791468346e-07,-0.02242838218808174,0.10831619054079175,9.802070617675781,8.999999999999999e-08,0.0,0.0,0.0,8.999999999999999e-08,0.0,0.0,0.0,8.999999999999999e-08
1758793484637443416,123276,1758793484631253376,base_link,-0.008224480371404877,-0.0016199724037051074,0.015586157460419765,-0.9998434494903595,1.0,0.0,0.0,0.0,1.0,0.0,0.0,0.0,1.0,-0.0016594657208770514,0.00272631412371993,-0.0021635373122990136,1.2184696791468346e-07,0.0,0.0,0.0,1.2184696791468346e-07,0.0,0.0,0.0,1.2184696791468346e-07,-0.02304757758975029,0.17583955824375272,9.819499015808105,8.999999999999999e-08,0.0,0.0,0.0,8.999999999999999e-08,0.0,0.0,0.0,8.999999999999999e-08
1758793484644131992,123277,1758793484640253376,base_link,-0.008222256795873673,-0.0016294564324368208,0.015595893382425764,-0.9998433230498139,1.0,0.0,0.0,0.0,1.0,0.0,0.0,0.0,1.0,-0.001150510972365737,0.001532005611807108,-0.0007845048094168308,1.2184696791468346e-07,0.0,0.0,0.0,1.2184696791468346e-07,0.0,0.0,0.0,1.2184696791468346e-07,-0.05170975252985954,0.18850640952587247,9.818217277526855,8.999999999999999e-08,0.0,0.0,0.0,8.999999999999999e-08,0.0,0.0,0.0,8.999999999999999e-08
1758793484654224216,123278,1758793484646253376,base_link,-0.00822449288375053,-0.0016246981190943918,0.015600529535761982,-0.9998432387561169,1.0,0.0,0.0,0.0,1.0,0.0,0.0,0.0,1.0,0.0007099572103470564,-0.0002248147502541543,-0.000560132204554975,1.2184696791468346e-07,0.0,0.0,0.0,1.2184696791468346e-07,0.0,0.0,0.0,1.2184696791468346e-07,-0.04602387920022011,0.12897109985351682,9.793986320495605,8.999999999999999e-08,0.0,0.0,0.0,8.999999999999999e-08,0.0,0.0,0.0,8.999999999999999e-08
1758793484661349656,123279,1758793484656253376,base_link,-0.008217794169015328,-0.001609541717243169,0.015614100820982487,-0.9998430701687229,1.0,0.0,0.0,0.0,1.0,0.0,0.0,0.0,1.0,-0.0028790358919650316,-0.00435899617150426,-0.003725694259628653,1.2184696791468346e-07,0.0,0.0,0.0,1.2184696791468346e-07,0.0,0.0,0.0,1.2184696791468346e-07,-0.022238977253437042,0.16910883784294248,9.788187980651855,8.999999999999999e-08,0.0,0.0,0.0,8.999999999999999e-08,0.0,0.0,0.0,8.999999999999999e-08
1758793484667519512,123280,1758793484661253376,base_link,-0.008199401679451879,-0.0016057346714425213,0.015616081722862506,-0.9998431966092685,1.0,0.0,0.0,0.0,1.0,0.0,0.0,0.0,1.0,-0.0024477553088217974,-0.001846665982156992,-7.194059435278154e-05,1.2184696791468346e-07,0.0,0.0,0.0,1.2184696791468346e-07,0.0,0.0,0.0,1.2184696791468346e-07,-0.051829077303409576,0.15633223950863004,9.786271095275879,8.999999999999999e-08,0.0,0.0,0.0,8.999999999999999e-08,0.0,0.0,0.0,8.999999999999999e-08
1758793484676602008,123281,1758793484670253376,base_link,-0.008204721731259619,-0.001614059661840185,0.015605966479219852,-0.9998432809029655,1.0,0.0,0.0,0.0,1.0,0.0,0.0,0.0,1.0,-0.0015355015639215708,-0.00040458980947732915,0.0008795242756605148,1.2184696791468346e-07,0.0,0.0,0.0,1.2184696791468346e-07,0.0,0.0,0.0,1.2184696791468346e-07,-0.04668492078781128,0.11746031045913816,9.79620361328125,8.999999999999999e-08,0.0,0.0,0.0,8.999999999999999e-08,0.0,0.0,0.0,8.999999999999999e-08
1758793484679733560,123282,1758793484676253376,base_link,-0.008196330886411156,-0.001607078102238806,0.015610223310919468,-0.9998433230498139,1.0,0.0,0.0,0.0,1.0,0.0,0.0,0.0,1.0,-0.0012590892147272825,0.0008504260331392286,-0.00135092344135046,1.2184696791468346e-07,0.0,0.0,0.0,1.2184696791468346e-07,0.0,0.0,0.0,1.2184696791468346e-07,0.000946990679949522,0.15540044009685636,9.809225082397461,8.999999999999999e-08,0.0,0.0,0.0,8.999999999999999e-08,0.0,0.0,0.0,8.999999999999999e-08
1758793484691602456,123283,1758793484685253376,base_link,-0.008189356241527111,-0.0016153329576463692,0.015610644779404579,-0.9998433230498139,1.0,0.0,0.0,0.0,1.0,0.0,0.0,0.0,1.0,-0.0006557430606335402,-0.0032878094352781773,-0.0012803175486624237,1.2184696791468346e-07,0.0,0.0,0.0,1.2184696791468346e-07,0.0,0.0,0.0,1.2184696791468346e-07,-0.04555570334196091,0.23188261687755704,9.803603172302246,8.999999999999999e-08,0.0,0.0,0.0,8.999999999999999e-08,0.0,0.0,0.0,8.999999999999999e-08
1758793484697406072,123284,1758793484691253376,base_link,-0.008203420447311843,-0.0016056908782327403,0.015626576288141705,-0.9998429858750258,1.0,0.0,0.0,0.0,1.0,0.0,0.0,0.0,1.0,0.0035343775525689125,-0.0005175555124878886,-0.0020211816299706697,1.2184696791468346e-07,0.0,0.0,0.0,1.2184696791468346e-07,0.0,0.0,0.0,1.2184696791468346e-07,-0.030947916209697723,0.1202951967716229,9.776345252990723,8.999999999999999e-08,0.0,0.0,0.0,8.999999999999999e-08,0.0,0.0,0.0,8.999999999999999e-08
1758793484704418648,123285,1758793484700253376,base_link,-0.008207052320273368,-0.001596560817174068,0.015622488043836133,-0.9998430280218744,1.0,0.0,0.0,0.0,1.0,0.0,0.0,0.0,1.0,0.0031124374363571405,-0.0015499535948038103,-0.001420981716364622,1.2184696791468346e-07,0.0,0.0,0.0,1.2184696791468346e-07,0.0,0.0,0.0,1.2184696791468346e-07,-0.012922869063913822,0.12558522820472837,9.78013801574707,8.999999999999999e-08,0.0,0.0,0.0,8.999999999999999e-08,0.0,0.0,0.0,8.999999999999999e-08
1758793484712351288,123286,1758793484706253632,base_link,-0.008214015440628523,-0.0015857827484841687,0.015615365226437819,-0.9998430701687229,1.0,0.0,0.0,0.0,1.0,0.0,0.0,0.0,1.0,0.00036327261477708817,-0.0004971451126039024,0.0031388215720653534,1.2184696791468346e-07,0.0,0.0,0.0,1.2184696791468346e-07,0.0,0.0,0.0,1.2184696791468346e-07,-0.06654710322618484,0.14572855830192685,9.770820617675781,8.999999999999999e-08,0.0,0.0,0.0,8.999999999999999e-08,0.0,0.0,0.0,8.999999999999999e-08
1758793484725363768,123287,1758793484716253632,base_link,-0.008205669376806604,-0.001594387620297725,0.015609169639706693,-0.9998432809029655,1.0,0.0,0.0,0.0,1.0,0.0,0.0,0.0,1.0,0.0016497478354722261,0.0005753147415816786,0.0019171666353940964,1.2184696791468346e-07,0.0,0.0,0.0,1.2184696791468346e-07,0.0,0.0,0.0,1.2184696791468346e-07,-0.010044866241514683,0.15684014558792234,9.775849342346191,8.999999999999999e-08,0.0,0.0,0.0,8.999999999999999e-08,0.0,0.0,0.0,8.999999999999999e-08
1758793484729887928,123288,1758793484721253632,base_link,-0.008221285442724399,-0.0015989717486177926,0.015607905234251361,-0.9998431123155714,1.0,0.0,0.0,0.0,1.0,0.0,0.0,0.0,1.0,0.0019295492675155401,0.0015835925005376341,0.0010847970843315122,1.2184696791468346e-07,0.0,0.0,0.0,1.2184696791468346e-07,0.0,0.0,0.0,1.2184696791468346e-07,-0.02579871192574501,0.19499772787094236,9.788802146911621,8.999999999999999e-08,0.0,0.0,0.0,8.999999999999999e-08,0.0,0.0,0.0,8.999999999999999e-08
1758793484735378808,123289,1758793484731253632,base_link,-0.00823029992922192,-0.0016074758631216275,0.01560124603218667,-0.9998431123155714,1.0,0.0,0.0,0.0,1.0,0.0,0.0,0.0,1.0,0.0030830525793135166,0.0032130195759236813,-0.00043025112245231905,1.2184696791468346e-07,0.0,0.0,0.0,1.2184696791468346e-07,0.0,0.0,0.0,1.2184696791468346e-07,-0.03885830193758011,0.11538032442331435,9.818196296691895,8.999999999999999e-08,0.0,0.0,0.0,8.999999999999999e-08,0.0,0.0,0.0,8.999999999999999e-08
1758793484743389880,123290,1758793484736253632,base_link,-0.00822460022650533,-0.0016156740837015046,0.015602721171884557,-0.9998431544624199,1.0,0.0,0.0,0.0,1.0,0.0,0.0,0.0,1.0,-0.001638677204027772,0.0021756738424301147,0.00030957447597756955,1.2184696791468346e-07,0.0,0.0,0.0,1.2184696791468346e-07,0.0,0.0,0.0,1.2184696791468346e-07,-0.028435464948415756,0.10640520602464795,9.798802375793457,8.999999999999999e-08,0.0,0.0,0.0,8.999999999999999e-08,0.0,0.0,0.0,8.999999999999999e-08
1758793484749634584,123291,1758793484745253632,base_link,-0.008218112246012684,-0.0016152473468603312,0.015594713270667453,-0.999843407343511,1.0,0.0,0.0,0.0,1.0,0.0,0.0,0.0,1.0,-0.001741999527439475,-0.0009668702259659766,0.0009009985369630159,1.2184696791468346e-07,0.0,0.0,0.0,1.2184696791468346e-07,0.0,0.0,0.0,1.2184696791468346e-07,-0.021238021552562714,0.1474846452474606,9.830391883850098,8.999999999999999e-08,0.0,0.0,0.0,8.999999999999999e-08,0.0,0.0,0.0,8.999999999999999e-08
1758793484754087640,123292,1758793484746253632,base_link,-0.008207426044281648,-0.001603030029148236,0.015591973725514234,-0.9998435337840565,1.0,0.0,0.0,0.0,1.0,0.0,0.0,0.0,1.0,-0.0008392699528485537,-0.0005698697641491888,0.0018415269441902637,1.2184696791468346e-07,0.0,0.0,0.0,1.2184696791468346e-07,0.0,0.0,0.0,1.2184696791468346e-07,0.011569906026124954,0.19406594336032987,9.794570922851562,8.999999999999999e-08,0.0,0.0,0.0,8.999999999999999e-08,0.0,0.0,0.0,8.999999999999999e-08
1758793484759441208,123293,1758793484751253632,base_link,-0.008220190941752132,-0.0016139891975778308,0.015582195656659725,-0.9998435337840565,1.0,0.0,0.0,0.0,1.0,0.0,0.0,0.0,1.0,0.0030076494440436363,0.0027167969383299355,0.003999888896942139,1.2184696791468346e-07,0.0,0.0,0.0,1.2184696791468346e-07,0.0,0.0,0.0,1.2184696791468346e-07,-0.03463097661733627,0.12072263658046843,9.81216049194336,8.999999999999999e-08,0.0,0.0,0.0,8.999999999999999e-08,0.0,0.0,0.0,8.999999999999999e-08
1758793484769923704,123294,1758793484761253632,base_link,-0.008218592324959004,-0.0016176003263873536,0.015594207508485322,-0.9998433230498139,1.0,0.0,0.0,0.0,1.0,0.0,0.0,0.0,1.0,-0.00020161550492048264,-0.00045794527977705024,-0.0018371960613876581,1.2184696791468346e-07,0.0,0.0,0.0,1.2184696791468346e-07,0.0,0.0,0.0,1.2184696791468346e-07,-0.005434802733361721,0.1714477092027676,9.826336860656738,8.999999999999999e-08,0.0,0.0,0.0,8.999999999999999e-08,0.0,0.0,0.0,8.999999999999999e-08
1758793484773275736,123295,1758793484766253632,base_link,-0.008211280834559125,-0.0016222954194570166,0.015598801514973027,-0.9998433651966624,1.0,0.0,0.0,0.0,1.0,0.0,0.0,0.0,1.0,-0.0036790159065276384,-0.0024782493710517883,-0.001059778034687042,1.2184696791468346e-07,0.0,0.0,0.0,1.2184696791468346e-07,0.0,0.0,0.0,1.2184696791468346e-07,-0.01997813582420349,0.20831762254238248,9.80554485321045,8.999999999999999e-08,0.0,0.0,0.0,8.999999999999999e-08,0.0,0.0,0.0,8.999999999999999e-08
1758793484780147064,123296,1758793484776253632,base_link,-0.008192518572254445,-0.0016114363497926353,0.015580804810658858,-0.999843744518299,1.0,0.0,0.0,0.0,1.0,0.0,0.0,0.0,1.0,-0.004086088389158249,-0.001478922553360462,0.002467731013894081,1.2184696791468346e-07,0.0,0.0,0.0,1.2184696791468346e-07,0.0,0.0,0.0,1.2184696791468346e-07,-0.04511557146906853,0.11409710347652555,9.801695823669434,8.999999999999999e-08,0.0,0.0,0.0,8.999999999999999e-08,0.0,0.0,0.0,8.999999999999999e-08
1758793484785366232,123297,1758793484781253632,base_link,-0.008197572572080957,-0.001609281262890262,0.01557663227265632,-0.9998437866651476,1.0,0.0,0.0,0.0,1.0,0.0,0.0,0.0,1.0,0.0001578223891556263,-4.129437729716298e-05,0.0002054724027402699,1.2184696791468346e-07,0.0,0.0,0.0,1.2184696791468346e-07,0.0,0.0,0.0,1.2184696791468346e-07,-0.033517926931381226,0.1245490387082112,9.820076942443848,8.999999999999999e-08,0.0,0.0,0.0,8.999999999999999e-08,0.0,0.0,0.0,8.999999999999999e-08
1758793484794126968,123298,1758793484790253632,base_link,-0.0081903947662162,-0.0016089108316045219,0.015581015544901414,-0.9998437866651476,1.0,0.0,0.0,0.0,1.0,0.0,0.0,0.0,1.0,-0.001395912142470479,-0.0002967957407236102,-0.002254227176308632,1.2184696791468346e-07,0.0,0.0,0.0,1.2184696791468346e-07,0.0,0.0,0.0,1.2184696791468346e-07,-0.05315317213535309,0.22422456741333127,9.78959846496582,8.999999999999999e-08,0.0,0.0,0.0,8.999999999999999e-08,0.0,0.0,0.0,8.999999999999999e-08
1758793484800537400,123299,1758793484796253632,base_link,-0.0081858080037181,-0.0016046454388263178,0.01557431419598821,-0.9998439131056931,1.0,0.0,0.0,0.0,1.0,0.0,0.0,0.0,1.0,-0.00020950054749846458,8.926982991397397e-05,0.001312241773121059,1.2184696791468346e-07,0.0,0.0,0.0,1.2184696791468346e-07,0.0,0.0,0.0,1.2184696791468346e-07,-0.058984506875276566,0.13846227526664853,9.77330207824707,8.999999999999999e-08,0.0,0.0,0.0,8.999999999999999e-08,0.0,0.0,0.0,8.999999999999999e-08
1758793484808493400,123300,1758793484805253632,base_link,-0.008170148803135033,-0.0015973339484264394,0.015577180181686962,-0.9998439973993901,1.0,0.0,0.0,0.0,1.0,0.0,0.0,0.0,1.0,-0.0006647806148976088,-0.001057486515492201,-0.0014462433755397794,1.2184696791468346e-07,0.0,0.0,0.0,1.2184696791468346e-07,0.0,0.0,0.0,1.2184696791468346e-07,-0.02974209561944008,0.08643488585949065,9.813191413879395,8.999999999999999e-08,0.0,0.0,0.0,8.999999999999999e-08,0.0,0.0,0.0,8.999999999999999e-08
1758793484816232376,123301,1758793484811253632,base_link,-0.008169926873635842,-0.0015921604227717274,0.015598253605942382,-0.999843744518299,1.0,0.0,0.0,0.0,1.0,0.0,0.0,0.0,1.0,-0.0015837496612221003,-0.0010017435997724533,-0.0007754876278340815,1.2184696791468346e-07,0.0,0.0,0.0,1.2184696791468346e-07,0.0,0.0,0.0,1.2184696791468346e-07,-0.039545733481645584,0.22675339877605558,9.803570747375488,8.999999999999999e-08,0.0,0.0,0.0,8.999999999999999e-08,0.0,0.0,0.0,8.999999999999999e-08
1758793484823177464,123302,1758793484815253632,base_link,-0.008175763224337839,-0.0016003220941314112,0.015586241754116785,-0.9998438709588446,1.0,0.0,0.0,0.0,1.0,0.0,0.0,0.0,1.0,0.0007976603228598833,0.0036530438810586934,0.002884830348193645,1.2184696791468346e-07,0.0,0.0,0.0,1.2184696791468346e-07,0.0,0.0,0.0,1.2184696791468346e-07,-0.06004678085446358,0.15929628908634305,9.793558120727539,8.999999999999999e-08,0.0,0.0,0.0,8.999999999999999e-08,0.0,0.0,0.0,8.999999999999999e-08
1758793484829275960,123303,1758793484825253632,base_link,-0.008196599572570412,-0.0016234053962252215,0.015583839383751656,-0.999843660224602,1.0,0.0,0.0,0.0,1.0,0.0,0.0,0.0,1.0,0.0026479288935661316,0.0038982362020760775,-0.0003250541631132369,1.2184696791468346e-07,0.0,0.0,0.0,1.2184696791468346e-07,0.0,0.0,0.0,1.2184696791468346e-07,-0.04033074155449867,0.13825859129428983,9.840185165405273,8.999999999999999e-08,0.0,0.0,0.0,8.999999999999999e-08,0.0,0.0,0.0,8.999999999999999e-08
1758793484839337912,123304,1758793484833253632,base_link,-0.00818313760573823,-0.001616943757512895,0.015588728418178937,-0.999843744518299,1.0,0.0,0.0,0.0,1.0,0.0,0.0,0.0,1.0,0.0016954403836280107,-0.0007026907987892629,-0.0008615308906883,1.2184696791468346e-07,0.0,0.0,0.0,1.2184696791468346e-07,0.0,0.0,0.0,1.2184696791468346e-07,-0.05058965086936951,0.19189800322055936,9.831963539123535,8.999999999999999e-08,0.0,0.0,0.0,8.999999999999999e-08,0.0,0.0,0.0,8.999999999999999e-08
1758793484846215896,123305,1758793484839253632,base_link,-0.008180428353632389,-0.0016163675310684102,0.01559079361375598,-0.9998437023714506,1.0,0.0,0.0,0.0,1.0,0.0,0.0,0.0,1.0,0.0010490994900465012,-0.0003779525868594645,0.00151926395483315,1.2184696791468346e-07,0.0,0.0,0.0,1.2184696791468346e-07,0.0,0.0,0.0,1.2184696791468346e-07,-0.06538331508636475,0.16394993662834287,9.81164264678955,8.999999999999999e-08,0.0,0.0,0.0,8.999999999999999e-08,0.0,0.0,0.0,8.999999999999999e-08
1758793484853198744,123306,1758793484848253632,base_link,-0.0081813078398228,-0.001618045173202496,0.015597073494184073,-0.999843575930905,1.0,0.0,0.0,0.0,1.0,0.0,0.0,0.0,1.0,0.0015732264146208763,0.002998887561261654,-0.0012917642015963797,1.2184696791468346e-07,0.0,0.0,0.0,1.2184696791468346e-07,0.0,0.0,0.0,1.2184696791468346e-07,-0.016171131283044815,0.12350585311651349,9.778852462768555,8.999999999999999e-08,0.0,0.0,0.0,8.999999999999999e-08,0.0,0.0,0.0,8.999999999999999e-08
1758793484857332024,123307,1758793484853253632,base_link,-0.008185281826656222,-0.001622923341645378,0.015608410996433493,-0.9998433651966625,1.0,0.0,0.0,0.0,1.0,0.0,0.0,0.0,1.0,0.000716404989361763,0.003774168668314814,-0.0026158047839999203,1.2184696791468346e-07,0.0,0.0,0.0,1.2184696791468346e-07,0.0,0.0,0.0,1.2184696791468346e-07,-0.03797591105103493,0.19051527976989865,9.8060302734375,8.999999999999999e-08,0.0,0.0,0.0,8.999999999999999e-08,0.0,0.0,0.0,8.999999999999999e-08
1758793484865529528,123308,1758793484861253632,base_link,-0.0081748030664452,-0.001616183138606175,0.015597115641032583,-0.9998436180777536,1.0,0.0,0.0,0.0,1.0,0.0,0.0,0.0,1.0,-0.004011748358607292,-0.002439183183014393,0.0010857890592888,1.2184696791468346e-07,0.0,0.0,0.0,1.2184696791468346e-07,0.0,0.0,0.0,1.2184696791468346e-07,-0.03228132426738739,0.13879507780075193,9.776354789733887,8.999999999999999e-08,0.0,0.0,0.0,8.999999999999999e-08,0.0,0.0,0.0,8.999999999999999e-08
1758793484872235640,123309,1758793484867253632,base_link,-0.008187459304071866,-0.0016212088210188452,0.015596188410365341,-0.9998435337840565,1.0,0.0,0.0,0.0,1.0,0.0,0.0,0.0,1.0,0.0021292087621986866,4.140892997384073e-05,9.657209739089012e-05,1.2184696791468346e-07,0.0,0.0,0.0,1.2184696791468346e-07,0.0,0.0,0.0,1.2184696791468346e-07,-0.030282001942396164,0.12878088653087735,9.776716232299805,8.999999999999999e-08,0.0,0.0,0.0,8.999999999999999e-08,0.0,0.0,0.0,8.999999999999999e-08
1758793484880353336,123310,1758793484876253632,base_link,-0.008196426704637067,-0.0016211153076987116,0.015597115641032585,-0.9998434494903595,1.0,0.0,0.0,0.0,1.0,0.0,0.0,0.0,1.0,1.2019649147987366e-05,0.0004730408545583487,0.00033459556289017195,1.2184696791468346e-07,0.0,0.0,0.0,1.2184696791468346e-07,0.0,0.0,0.0,1.2184696791468346e-07,-0.008464246056973934,0.21265889704227567,9.784292221069336,8.999999999999999e-08,0.0,0.0,0.0,8.999999999999999e-08,0.0,0.0,0.0,8.999999999999999e-08
1758793484887443832,123311,1758793484878253632,base_link,-0.008187798454493477,-0.0016182242973086676,0.01558759045326914,-0.9998437023714506,1.0,0.0,0.0,0.0,1.0,0.0,0.0,0.0,1.0,0.000302804633975029,-0.000280590262264013,0.002153275767341256,1.2184696791468346e-07,0.0,0.0,0.0,1.2184696791468346e-07,0.0,0.0,0.0,1.2184696791468346e-07,0.0036835605278611183,0.22391563653946042,9.835555076599121,8.999999999999999e-08,0.0,0.0,0.0,8.999999999999999e-08,0.0,0.0,0.0,8.999999999999999e-08
1758793484890036248,123312,1758793484882253632,base_link,-0.008191817551625697,-0.0016174887030932508,0.01557848673399075,-0.9998438709588446,1.0,0.0,0.0,0.0,1.0,0.0,0.0,0.0,1.0,-0.001068333862349391,-0.002782147377729416,0.0006539669120684269,1.2184696791468346e-07,0.0,0.0,0.0,1.2184696791468346e-07,0.0,0.0,0.0,1.2184696791468346e-07,-0.029929865151643753,0.117122106254102,9.823253631591797,8.999999999999999e-08,0.0,0.0,0.0,8.999999999999999e-08,0.0,0.0,0.0,8.999999999999999e-08
1758793484897160856,123313,1758793484893253632,base_link,-0.008184650611745321,-0.0016193293349930625,0.015587548306420628,-0.999843744518299,1.0,0.0,0.0,0.0,1.0,0.0,0.0,0.0,1.0,-0.0011688137892633677,-0.00026812078431248676,-0.0007650817278772593,1.2184696791468346e-07,0.0,0.0,0.0,1.2184696791468346e-07,0.0,0.0,0.0,1.2184696791468346e-07,-0.017921999096870422,0.15074612200260282,9.810562133789062,8.999999999999999e-08,0.0,0.0,0.0,8.999999999999999e-08,0.0,0.0,0.0,8.999999999999999e-08
1758793484903249144,123314,1758793484897253632,base_link,-0.008182126081373968,-0.0016208166577643417,0.015579498258355015,-0.9998438709588446,1.0,0.0,0.0,0.0,1.0,0.0,0.0,0.0,1.0,-0.0009225856047123671,0.001531422371044755,0.0007630706531926987,1.2184696791468346e-07,0.0,0.0,0.0,1.2184696791468346e-07,0.0,0.0,0.0,1.2184696791468346e-07,-0.052247487008571625,0.18229521811008573,9.795167922973633,8.999999999999999e-08,0.0,0.0,0.0,8.999999999999999e-08,0.0,0.0,0.0,8.999999999999999e-08
1758793484914168440,123315,1758793484908253120,base_link,-0.008190986468456622,-0.001619073819723965,0.015583839383751654,-0.999843744518299,1.0,0.0,0.0,0.0,1.0,0.0,0.0,0.0,1.0,0.0014115381054580212,-0.00019899010658264155,0.00040111650014296174,1.2184696791468346e-07,0.0,0.0,0.0,1.2184696791468346e-07,0.0,0.0,0.0,1.2184696791468346e-07,-0.018138621002435684,0.15062108635902524,9.824892044067383,8.999999999999999e-08,0.0,0.0,0.0,8.999999999999999e-08,0.0,0.0,0.0,8.999999999999999e-08
1758793484920144568,123316,1758793484913253120,base_link,-0.008183898883189458,-0.0016187330229410842,0.015577306622232496,-0.9998439552525417,1.0,0.0,0.0,0.0,1.0,0.0,0.0,0.0,1.0,-0.00020302366465330124,6.928993389010433e-05,0.0002830283483490348,1.2184696791468346e-07,0.0,0.0,0.0,1.2184696791468346e-07,0.0,0.0,0.0,1.2184696791468346e-07,-0.016116563230752945,0.18905429542064786,9.833304405212402,8.999999999999999e-08,0.0,0.0,0.0,8.999999999999999e-08,0.0,0.0,0.0,8.999999999999999e-08
1758793484925242104,123317,1758793484923253120,base_link,-0.008174738858355672,-0.001614509447739137,0.015575873629383119,-0.9998440395462387,1.0,0.0,0.0,0.0,1.0,0.0,0.0,0.0,1.0,-0.002739418065175414,-0.0011007855646312237,0.0008041381370276214,1.2184696791468346e-07,0.0,0.0,0.0,1.2184696791468346e-07,0.0,0.0,0.0,1.2184696791468346e-07,-0.04357222095131874,0.19105604290962339,9.797039031982422,8.999999999999999e-08,0.0,0.0,0.0,8.999999999999999e-08,0.0,0.0,0.0,8.999999999999999e-08
1758793484933238712,123318,1758793484927253120,base_link,-0.008172502111934309,-0.001620826535931961,0.015576843006898874,-0.9998439973993901,1.0,0.0,0.0,0.0,1.0,0.0,0.0,0.0,1.0,-0.0028822345193475485,0.00036061299033463,0.00017901055980473751,1.2184696791468346e-07,0.0,0.0,0.0,1.2184696791468346e-07,0.0,0.0,0.0,1.2184696791468346e-07,-0.07536289095878601,0.14406391978263974,9.792618751525879,8.999999999999999e-08,0.0,0.0,0.0,8.999999999999999e-08,0.0,0.0,0.0,8.999999999999999e-08
1758793484943193624,123319,1758793484938253120,base_link,-0.008177037178688533,-0.0016096118522332694,0.015585609551389119,-0.9998438288119961,1.0,0.0,0.0,0.0,1.0,0.0,0.0,0.0,1.0,0.0012486351188272238,-0.0004979074001312257,-0.0009705703705549239,1.2184696791468346e-07,0.0,0.0,0.0,1.2184696791468346e-07,0.0,0.0,0.0,1.2184696791468346e-07,-0.035532109439373016,0.15251296758651853,9.809648513793945,8.999999999999999e-08,0.0,0.0,0.0,8.999999999999999e-08,0.0,0.0,0.0,8.999999999999999e-08
1758793484949303352,123320,1758793484942253120,base_link,-0.008193233751590112,-0.0016096510356314944,0.015572544028350746,-0.9998439131056931,1.0,0.0,0.0,0.0,1.0,0.0,0.0,0.0,1.0,0.004434045869857073,-0.00101136602461338,0.00401042215526104,1.2184696791468346e-07,0.0,0.0,0.0,1.2184696791468346e-07,0.0,0.0,0.0,1.2184696791468346e-07,-0.04507860168814659,0.18905666470527768,9.815274238586426,8.999999999999999e-08,0.0,0.0,0.0,8.999999999999999e-08,0.0,0.0,0.0,8.999999999999999e-08
1758793484958254040,123321,1758793484953253120,base_link,-0.008193654890802968,-0.00159702377396318,0.015574145608594166,-0.9998439131056931,1.0,0.0,0.0,0.0,1.0,0.0,0.0,0.0,1.0,0.0014891242608428001,-0.002555503975600004,-0.0015635162126272915,1.2184696791468346e-07,0.0,0.0,0.0,1.2184696791468346e-07,0.0,0.0,0.0,1.2184696791468346e-07,-0.03909221291542053,0.11276653409004332,9.807994842529297,8.999999999999999e-08,0.0,0.0,0.0,8.999999999999999e-08,0.0,0.0,0.0,8.999999999999999e-08
1758793484964200184,123322,1758793484957253120,base_link,-0.008205595949093964,-0.0016044393143953193,0.015578697468233305,-0.999843744518299,1.0,0.0,0.0,0.0,1.0,0.0,0.0,0.0,1.0,0.002022931817919016,-0.0007501929067075254,-0.0006337291561067103,1.2184696791468346e-07,0.0,0.0,0.0,1.2184696791468346e-07,0.0,0.0,0.0,1.2184696791468346e-07,-0.029553011059761047,0.14695794880390287,9.81046199798584,8.999999999999999e-08,0.0,0.0,0.0,8.999999999999999e-08,0.0,0.0,0.0,8.999999999999999e-08
1758793484973548888,123323,1758793484968253120,base_link,-0.00818462097724246,-0.0016055657547762237,0.01556875081198475,-0.9998440816930871,1.0,0.0,0.0,0.0,1.0,0.0,0.0,0.0,1.0,-0.0009440400172024965,0.00012784288264811053,0.0011534042423591018,1.2184696791468346e-07,0.0,0.0,0.0,1.2184696791468346e-07,0.0,0.0,0.0,1.2184696791468346e-07,-0.061579857021570206,0.17907758057117582,9.798666954040527,8.999999999999999e-08,0.0,0.0,0.0,8.999999999999999e-08,0.0,0.0,0.0,8.999999999999999e-08
1758793484979430328,123324,1758793484973253120,base_link,-0.008186908102318684,-0.0016063026660806563,0.015556486079068085,-0.9998442081336326,1.0,0.0,0.0,0.0,1.0,0.0,0.0,0.0,1.0,0.001284126192331314,0.0007332081440836197,0.0042121876031160355,1.2184696791468346e-07,0.0,0.0,0.0,1.2184696791468346e-07,0.0,0.0,0.0,1.2184696791468346e-07,-0.026432424783706665,0.11608047783374906,9.801121711730957,8.999999999999999e-08,0.0,0.0,0.0,8.999999999999999e-08,0.0,0.0,0.0,8.999999999999999e-08
1758793484985258168,123325,1758793484981253120,base_link,-0.008197556108468259,-0.0016113925565828548,0.015557118281795752,-0.9998440816930871,1.0,0.0,0.0,0.0,1.0,0.0,0.0,0.0,1.0,0.0013001214247196913,-0.0012032631784677505,0.0007932055741548539,1.2184696791468346e-07,0.0,0.0,0.0,1.2184696791468346e-07,0.0,0.0,0.0,1.2184696791468346e-07,0.010642839595675468,0.13450783491134763,9.780861854553223,8.999999999999999e-08,0.0,0.0,0.0,8.999999999999999e-08,0.0,0.0,0.0,8.999999999999999e-08
1758793484990455448,123326,1758793484987253120,base_link,-0.008179182058151033,-0.0015978996381587967,0.015545232870515686,-0.9998445031615723,1.0,0.0,0.0,0.0,1.0,0.0,0.0,0.0,1.0,-0.0017145362216979265,-0.0010677012614905832,0.0012576626613736155,1.2184696791468346e-07,0.0,0.0,0.0,1.2184696791468346e-07,0.0,0.0,0.0,1.2184696791468346e-07,-0.03808814659714699,0.14487051963806272,9.850227355957031,8.999999999999999e-08,0.0,0.0,0.0,8.999999999999999e-08,0.0,0.0,0.0,8.999999999999999e-08
1758793485004338168,123327,1758793484996253120,base_link,-0.008194329240379142,-0.0016002348369841036,0.015540681010876493,-0.9998444188678752,1.0,0.0,0.0,0.0,1.0,0.0,0.0,0.0,1.0,0.001493407879024744,-0.0004904079250991342,0.001682298257946968,1.2184696791468346e-07,0.0,0.0,0.0,1.2184696791468346e-07,0.0,0.0,0.0,1.2184696791468346e-07,-0.06274207681417465,0.11755056679248929,9.780584335327148,8.999999999999999e-08,0.0,0.0,0.0,8.999999999999999e-08,0.0,0.0,0.0,8.999999999999999e-08
1758793485007452312,123328,1758793485002250816,base_link,-0.008201498485165297,-0.0016047238056227677,0.015558719862039173,-0.9998440816930871,1.0,0.0,0.0,0.0,1.0,0.0,0.0,0.0,1.0,0.0022212103940546513,0.0028214668855071063,-0.0018240879289805893,1.2184696791468346e-07,0.0,0.0,0.0,1.2184696791468346e-07,0.0,0.0,0.0,1.2184696791468346e-07,-0.039935026317834854,0.19853997230529905,9.8245267868042,8.999999999999999e-08,0.0,0.0,0.0,8.999999999999999e-08,0.0,0.0,0.0,8.999999999999999e-08
1758793485017358680,123329,1758793485013250816,base_link,-0.008189779685645745,-0.001599954626295957,0.015534190396205844,-0.9998445874552693,1.0,0.0,0.0,0.0,1.0,0.0,0.0,0.0,1.0,-0.003195936558768153,0.0008054529316723351,0.0031462847255170345,1.2184696791468346e-07,0.0,0.0,0.0,1.2184696791468346e-07,0.0,0.0,0.0,1.2184696791468346e-07,-0.02867024391889572,0.13883346319198728,9.801642417907715,8.999999999999999e-08,0.0,0.0,0.0,8.999999999999999e-08,0.0,0.0,0.0,8.999999999999999e-08
1758793485023198648,123330,1758793485017250816,base_link,-0.008187413205956307,-0.0016001926901355924,0.015549110380578705,-0.9998443345741782,1.0,0.0,0.0,0.0,1.0,0.0,0.0,0.0,1.0,-0.0031864766497164965,-0.00120465736836195,5.265371873974815e-05,1.2184696791468346e-07,0.0,0.0,0.0,1.2184696791468346e-07,0.0,0.0,0.0,1.2184696791468346e-07,-0.03263990581035614,0.09578033536672713,9.806366920471191,8.999999999999999e-08,0.0,0.0,0.0,8.999999999999999e-08,0.0,0.0,0.0,8.999999999999999e-08
1758793485030152280,123331,1758793485026250816,base_link,-0.008182097434687872,-0.0015949421147734466,0.015543968465060355,-0.9998445031615723,1.0,0.0,0.0,0.0,1.0,0.0,0.0,0.0,1.0,-0.002663383958861232,-0.001424195244908333,-0.0015510362572968004,1.2184696791468346e-07,0.0,0.0,0.0,1.2184696791468346e-07,0.0,0.0,0.0,1.2184696791468346e-07,-0.026449192315340042,0.11365088075399518,9.79561710357666,8.999999999999999e-08,0.0,0.0,0.0,8.999999999999999e-08,0.0,0.0,0.0,8.999999999999999e-08
1758793485038751992,123332,1758793485028250816,base_link,-0.008178261742201126,-0.0015853922315909352,0.015537772878329229,-0.9998446296021178,1.0,0.0,0.0,0.0,1.0,0.0,0.0,0.0,1.0,-0.0015358112286776304,-0.0018675285391509533,0.0005762599757872524,1.2184696791468346e-07,0.0,0.0,0.0,1.2184696791468346e-07,0.0,0.0,0.0,1.2184696791468346e-07,-0.03504907712340355,0.20105761289596677,9.820168495178223,8.999999999999999e-08,0.0,0.0,0.0,8.999999999999999e-08,0.0,0.0,0.0,8.999999999999999e-08
1758793485043259352,123333,1758793485032250816,base_link,-0.008171286109500318,-0.0015939470540218843,0.015542409031665445,-0.9998446296021177,1.0,0.0,0.0,0.0,1.0,0.0,0.0,0.0,1.0,-0.004310129210352898,0.0001491468865424395,0.00029203237500041723,1.2184696791468346e-07,0.0,0.0,0.0,1.2184696791468346e-07,0.0,0.0,0.0,1.2184696791468346e-07,-0.08045860379934311,0.15717944502830625,9.809380531311035,8.999999999999999e-08,0.0,0.0,0.0,8.999999999999999e-08,0.0,0.0,0.0,8.999999999999999e-08
1758793485047156536,123334,1758793485043250816,base_link,-0.008149779692230873,-0.0015868983228806916,0.015549573995912325,-0.9998446296021178,1.0,0.0,0.0,0.0,1.0,0.0,0.0,0.0,1.0,-0.003039273666217923,-0.0009131617844104768,-0.0005417484790086745,1.2184696791468346e-07,0.0,0.0,0.0,1.2184696791468346e-07,0.0,0.0,0.0,1.2184696791468346e-07,-0.0333796963095665,0.14194439351558805,9.813928604125977,8.999999999999999e-08,0.0,0.0,0.0,8.999999999999999e-08,0.0,0.0,0.0,8.999999999999999e-08
1758793485056329848,123335,1758793485052250816,base_link,-0.008143603203290503,-0.0015666974700983213,0.015555685288946373,-0.9998446717489663,1.0,0.0,0.0,0.0,1.0,0.0,0.0,0.0,1.0,-0.0013993110042065382,-0.0016578850336372854,-0.0009770391043275593,1.2184696791468346e-07,0.0,0.0,0.0,1.2184696791468346e-07,0.0,0.0,0.0,1.2184696791468346e-07,-0.05573994293808937,0.19997885823249936,9.807475090026855,8.999999999999999e-08,0.0,0.0,0.0,8.999999999999999e-08,0.0,0.0,0.0,8.999999999999999e-08
1758793485066300728,123336,1758793485062250816,base_link,-0.008135068137194792,-0.001574073497859982,0.015555643142097862,-0.9998447138958148,1.0,0.0,0.0,0.0,1.0,0.0,0.0,0.0,1.0,-0.0027013279031962156,-0.00015409197658300416,-0.0012406259775161743,1.2184696791468346e-07,0.0,0.0,0.0,1.2184696791468346e-07,0.0,0.0,0.0,1.2184696791468346e-07,-0.04979134723544121,0.10243289172649503,9.799901962280273,8.999999999999999e-08,0.0,0.0,0.0,8.999999999999999e-08,0.0,0.0,0.0,8.999999999999999e-08
1758793485076198808,123337,1758793485071250816,base_link,-0.008109949603299062,-0.0015680883160991812,0.015551723485186332,-0.9998450089237544,1.0,0.0,0.0,0.0,1.0,0.0,0.0,0.0,1.0,-0.0031242782715708017,0.00032437220215797435,0.0010396366706117988,1.2184696791468346e-07,0.0,0.0,0.0,1.2184696791468346e-07,0.0,0.0,0.0,1.2184696791468346e-07,-0.024611249566078186,0.16832824051380277,9.805870056152344,8.999999999999999e-08,0.0,0.0,0.0,8.999999999999999e-08,0.0,0.0,0.0,8.999999999999999e-08
1758793485083251128,123338,1758793485076250816,base_link,-0.008133798134111149,-0.0015657814346877177,0.01554653942281953,-0.9998448824832089,1.0,0.0,0.0,0.0,1.0,0.0,0.0,0.0,1.0,0.0035618548281490803,0.000575699377804995,0.003890190739184618,1.2184696791468346e-07,0.0,0.0,0.0,1.2184696791468346e-07,0.0,0.0,0.0,1.2184696791468346e-07,-0.068812295794487,0.17330840229988217,9.83561897277832,8.999999999999999e-08,0.0,0.0,0.0,8.999999999999999e-08,0.0,0.0,0.0,8.999999999999999e-08
1758793485089206616,123339,1758793485084250816,base_link,-0.008137788913829524,-0.0015662154155184783,0.015541903269483312,-0.9998448824832088,1.0,0.0,0.0,0.0,1.0,0.0,0.0,0.0,1.0,0.001955607905983925,0.0005188761278986931,0.00021334807388484473,1.2184696791468346e-07,0.0,0.0,0.0,1.2184696791468346e-07,0.0,0.0,0.0,1.2184696791468346e-07,-0.01859516277909279,0.11949783563614012,9.821120262145996,8.999999999999999e-08,0.0,0.0,0.0,8.999999999999999e-08,0.0,0.0,0.0,8.999999999999999e-08
1758793485094098936,123340,1758793485090250816,base_link,-0.008134033234500498,-0.001585879554526842,0.01555395726815742,-0.9998447138958149,1.0,0.0,0.0,0.0,1.0,0.0,0.0,0.0,1.0,-0.0002125459723174572,0.00211215834133327,-0.00126238982193172,1.2184696791468346e-07,0.0,0.0,0.0,1.2184696791468346e-07,0.0,0.0,0.0,1.2184696791468346e-07,-0.024542871862649918,0.18758213520050168,9.8416748046875,8.999999999999999e-08,0.0,0.0,0.0,8.999999999999999e-08,0.0,0.0,0.0,8.999999999999999e-08
1758793485103266232,123341,1758793485099250816,base_link,-0.00814135493234025,-0.0015878090899352315,0.015547972415668906,-0.9998447138958149,1.0,0.0,0.0,0.0,1.0,0.0,0.0,0.0,1.0,0.004551606718450785,0.0019743172451853756,0.00268980860710144,1.2184696791468346e-07,0.0,0.0,0.0,1.2184696791468346e-07,0.0,0.0,0.0,1.2184696791468346e-07,-0.0815313309431076,0.18703998625278592,9.821041107177734,8.999999999999999e-08,0.0,0.0,0.0,8.999999999999999e-08,0.0,0.0,0.0,8.999999999999999e-08
1758793485108512760,123342,1758793485105249792,base_link,-0.008166432636476486,-0.0015914768535724415,0.01554219829742289,-0.9998446717489663,1.0,0.0,0.0,0.0,1.0,0.0,0.0,0.0,1.0,0.0038063800893723965,0.001790072536095977,0.0010102282976731656,1.2184696791468346e-07,0.0,0.0,0.0,1.2184696791468346e-07,0.0,0.0,0.0,1.2184696791468346e-07,-0.011505370028316975,0.13162672519683957,9.811474800109863,8.999999999999999e-08,0.0,0.0,0.0,8.999999999999999e-08,0.0,0.0,0.0,8.999999999999999e-08
1758793485121045400,123343,1758793485116249792,base_link,-0.008169066485236163,-0.001580483440828432,0.015528416277959829,-0.9998448824832088,1.0,0.0,0.0,0.0,1.0,0.0,0.0,0.0,1.0,-0.00018278625793755054,-0.0012232782319188116,0.002622026950120926,1.2184696791468346e-07,0.0,0.0,0.0,1.2184696791468346e-07,0.0,0.0,0.0,1.2184696791468346e-07,-0.039983246475458145,0.20113992691040158,9.804287910461426,8.999999999999999e-08,0.0,0.0,0.0,8.999999999999999e-08,0.0,0.0,0.0,8.999999999999999e-08
1758793485129038840,123344,1758793485121249792,base_link,-0.008174805700623233,-0.001584929274801823,0.015522094250683224,-0.9998448824832089,1.0,0.0,0.0,0.0,1.0,0.0,0.0,0.0,1.0,0.0018065526382997632,-0.0005100206471979613,0.004487767815589905,1.2184696791468346e-07,0.0,0.0,0.0,1.2184696791468346e-07,0.0,0.0,0.0,1.2184696791468346e-07,-0.01690012216567993,0.18435989320278287,9.790745735168457,8.999999999999999e-08,0.0,0.0,0.0,8.999999999999999e-08,0.0,0.0,0.0,8.999999999999999e-08
1758793485134227512,123345,1758793485125249792,base_link,-0.008170238035915864,-0.0015892381315175542,0.015519481146075539,-0.9998449667769059,1.0,0.0,0.0,0.0,1.0,0.0,0.0,0.0,1.0,0.002338503021746874,-0.0007689725607633593,-0.002057677134871483,1.2184696791468346e-07,0.0,0.0,0.0,1.2184696791468346e-07,0.0,0.0,0.0,1.2184696791468346e-07,-0.04865463078022003,0.11093428730964781,9.806970596313477,8.999999999999999e-08,0.0,0.0,0.0,8.999999999999999e-08,0.0,0.0,0.0,8.999999999999999e-08
1758793485143502584,123346,1758793485135249792,base_link,-0.008181963091608242,-0.0015905647694288852,0.015529512096021117,-0.9998447138958148,1.0,0.0,0.0,0.0,1.0,0.0,0.0,0.0,1.0,-0.0008468830492347479,0.0013132069725543265,0.0031852605752646923,1.2184696791468346e-07,0.0,0.0,0.0,1.2184696791468346e-07,0.0,0.0,0.0,1.2184696791468346e-07,-0.0515214242041111,0.19891075789928556,9.816487312316895,8.999999999999999e-08,0.0,0.0,0.0,8.999999999999999e-08,0.0,0.0,0.0,8.999999999999999e-08
1758793485150334104,123347,1758793485143249792,base_link,-0.008181375669907122,-0.0015927847229652951,0.01552188351644067,-0.9998448403363603,1.0,0.0,0.0,0.0,1.0,0.0,0.0,0.0,1.0,-0.0005656441207975149,0.0009395023807883265,0.0017397990450263021,1.2184696791468346e-07,0.0,0.0,0.0,1.2184696791468346e-07,0.0,0.0,0.0,1.2184696791468346e-07,-0.05643364414572716,0.240558907389642,9.809367179870605,8.999999999999999e-08,0.0,0.0,0.0,8.999999999999999e-08,0.0,0.0,0.0,8.999999999999999e-08
1758793485160145944,123348,1758793485149249792,base_link,-0.008170821835622191,-0.0015786056011639193,0.015501273707518816,-0.9998452196579969,1.0,0.0,0.0,0.0,1.0,0.0,0.0,0.0,1.0,0.0005127973854541779,-0.0013402970507740977,-0.0011772564612329004,1.2184696791468346e-07,0.0,0.0,0.0,1.2184696791468346e-07,0.0,0.0,0.0,1.2184696791468346e-07,-0.010086352936923504,0.1454906314611447,9.81856632232666,8.999999999999999e-08,0.0,0.0,0.0,8.999999999999999e-08,0.0,0.0,0.0,8.999999999999999e-08
1758793485165963288,123349,1758793485158249792,base_link,-0.008142930500075599,-0.0015619799865153872,0.01551754239104403,-0.999845219657997,1.0,0.0,0.0,0.0,1.0,0.0,0.0,0.0,1.0,-0.0018618644680827856,-0.0019014300778508186,0.00046069943346083186,1.2184696791468346e-07,0.0,0.0,0.0,1.2184696791468346e-07,0.0,0.0,0.0,1.2184696791468346e-07,-0.024816695600748062,0.18052175641059995,9.7771577835083,8.999999999999999e-08,0.0,0.0,0.0,8.999999999999999e-08,0.0,0.0,0.0,8.999999999999999e-08
1758793485173363544,123350,1758793485168249792,base_link,-0.00815014485516055,-0.001561193025828348,0.015496047498303443,-0.9998455568327851,1.0,0.0,0.0,0.0,1.0,0.0,0.0,0.0,1.0,-0.00042741396464407444,3.6804936826229394e-05,0.0024378900416195393,1.2184696791468346e-07,0.0,0.0,0.0,1.2184696791468346e-07,0.0,0.0,0.0,1.2184696791468346e-07,-0.008989707566797733,0.09311766177415969,9.837286949157715,8.999999999999999e-08,0.0,0.0,0.0,8.999999999999999e-08,0.0,0.0,0.0,8.999999999999999e-08
1758793485180986136,123351,1758793485178249792,base_link,-0.008156910082891057,-0.0015585608234299408,0.015501948057094992,-0.9998453882453909,1.0,0.0,0.0,0.0,1.0,0.0,0.0,0.0,1.0,0.0004048994742333889,-0.0007067495025694369,0.0011788277188315988,1.2184696791468346e-07,0.0,0.0,0.0,1.2184696791468346e-07,0.0,0.0,0.0,1.2184696791468346e-07,0.0063677625730633736,0.12420704215765119,9.761333465576172,8.999999999999999e-08,0.0,0.0,0.0,8.999999999999999e-08,0.0,0.0,0.0,8.999999999999999e-08
1758793485195414744,123352,1758793485188249792,base_link,-0.008134349006592077,-0.0015542071856876674,0.015494024449574966,-0.9998457254201791,1.0,0.0,0.0,0.0,1.0,0.0,0.0,0.0,1.0,-0.002334350487217307,-0.0014249915257096286,0.002725771628320217,1.2184696791468346e-07,0.0,0.0,0.0,1.2184696791468346e-07,0.0,0.0,0.0,1.2184696791468346e-07,-0.0688258484005928,0.13789100944996,9.830195426940918,8.999999999999999e-08,0.0,0.0,0.0,8.999999999999999e-08,0.0,0.0,0.0,8.999999999999999e-08
1758793485198427832,123353,1758793485193249792,base_link,-0.008148310479433565,-0.0015586368853206132,0.015498154840728995,-0.999845472539088,1.0,0.0,0.0,0.0,1.0,0.0,0.0,0.0,1.0,0.0019397316500544548,0.000439461087808013,0.0003575816517695784,1.2184696791468346e-07,0.0,0.0,0.0,1.2184696791468346e-07,0.0,0.0,0.0,1.2184696791468346e-07,-0.04684089496731758,0.12858027219772458,9.819746017456055,8.999999999999999e-08,0.0,0.0,0.0,8.999999999999999e-08,0.0,0.0,0.0,8.999999999999999e-08
1758793485207247544,123354,1758793485203248512,base_link,-0.00815104574404747,-0.0015704758692128725,0.015517626684741052,-0.9998451353643,1.0,0.0,0.0,0.0,1.0,0.0,0.0,0.0,1.0,0.0007811980322003365,0.0023797973990440364,-0.004276830703020096,1.2184696791468346e-07,0.0,0.0,0.0,1.2184696791468346e-07,0.0,0.0,0.0,1.2184696791468346e-07,0.002200101502239704,0.20855654776096463,9.781728744506836,8.999999999999999e-08,0.0,0.0,0.0,8.999999999999999e-08,0.0,0.0,0.0,8.999999999999999e-08
1758793485213272824,123355,1758793485207248512,base_link,-0.008130071430740474,-0.0015800494599976713,0.01550831223122016,-0.9998454303922395,1.0,0.0,0.0,0.0,1.0,0.0,0.0,0.0,1.0,-0.0047207484021782875,0.0016065670643001795,0.0002820368972606955,1.2184696791468346e-07,0.0,0.0,0.0,1.2184696791468346e-07,0.0,0.0,0.0,1.2184696791468346e-07,-0.01804206147789955,0.1706671416759503,9.78206729888916,8.999999999999999e-08,0.0,0.0,0.0,8.999999999999999e-08,0.0,0.0,0.0,8.999999999999999e-08
1758793485228719480,123356,1758793485222248512,base_link,-0.008114249240391681,-0.001555440968823373,0.015521546341652578,-0.9998454303922395,1.0,0.0,0.0,0.0,1.0,0.0,0.0,0.0,1.0,-0.002693768357858062,-0.0035278736613690853,-0.00011737435124814467,1.2184696791468346e-07,0.0,0.0,0.0,1.2184696791468346e-07,0.0,0.0,0.0,1.2184696791468346e-07,-0.03824213519692421,0.1922135055065167,9.792085647583008,8.999999999999999e-08,0.0,0.0,0.0,8.999999999999999e-08,0.0,0.0,0.0,8.999999999999999e-08
1758793485238251832,123357,1758793485233248512,base_link,-0.008118399058608734,-0.001549499909544607,0.015501020826427746,-0.999845725420179,1.0,0.0,0.0,0.0,1.0,0.0,0.0,0.0,1.0,0.0013643235433846712,-0.0004814220592379564,0.0047821952030062675,1.2184696791468346e-07,0.0,0.0,0.0,1.2184696791468346e-07,0.0,0.0,0.0,1.2184696791468346e-07,-0.04251444339752197,0.10379676520824552,9.776329040527344,8.999999999999999e-08,0.0,0.0,0.0,8.999999999999999e-08,0.0,0.0,0.0,8.999999999999999e-08
1758793485243498904,123358,1758793485237248512,base_link,-0.008110819211321852,-0.0015565292136228144,0.015510377426797147,-0.9998456411264821,1.0,0.0,0.0,0.0,1.0,0.0,0.0,0.0,1.0,0.0011853459291160107,0.0009540626779198647,-0.00032079860102385293,1.2184696791468346e-07,0.0,0.0,0.0,1.2184696791468346e-07,0.0,0.0,0.0,1.2184696791468346e-07,-0.0465705581009388,0.10074169188737989,9.7538480758667,8.999999999999999e-08,0.0,0.0,0.0,8.999999999999999e-08,0.0,0.0,0.0,8.999999999999999e-08
1758793485253131608,123359,1758793485248248512,base_link,-0.008117571926706708,-0.0015584409683294883,0.015518511768559782,-0.9998454303922395,1.0,0.0,0.0,0.0,1.0,0.0,0.0,0.0,1.0,0.0002738067414611578,0.0006871281657367944,-0.0008017795626074077,1.2184696791468346e-07,0.0,0.0,0.0,1.2184696791468346e-07,0.0,0.0,0.0,1.2184696791468346e-07,-0.059031207114458084,0.17891712486744046,9.836493492126465,8.999999999999999e-08,0.0,0.0,0.0,8.999999999999999e-08,0.0,0.0,0.0,8.999999999999999e-08
1758793485259284856,123360,1758793485252248512,base_link,-0.00812687419715422,-0.0015537524607049053,0.015515097873830387,-0.999845472539088,1.0,0.0,0.0,0.0,1.0,0.0,0.0,0.0,1.0,0.0013752426020801067,0.00014577363617718252,0.002558297012001276,1.2184696791468346e-07,0.0,0.0,0.0,1.2184696791468346e-07,0.0,0.0,0.0,1.2184696791468346e-07,-0.05499182268977165,0.18138125538826108,9.84892749786377,8.999999999999999e-08,0.0,0.0,0.0,8.999999999999999e-08,0.0,0.0,0.0,8.999999999999999e-08
1758793485269404952,123361,1758793485263248512,base_link,-0.008118939723649788,-0.0015572312220683239,0.015507427147401429,-0.9998456411264821,1.0,0.0,0.0,0.0,1.0,0.0,0.0,0.0,1.0,-0.0006278024520725012,0.00042204628698527813,4.719290882349009e-05,1.2184696791468346e-07,0.0,0.0,0.0,1.2184696791468346e-07,0.0,0.0,0.0,1.2184696791468346e-07,-0.010695255361497402,0.13445636630058408,9.785626411437988,8.999999999999999e-08,0.0,0.0,0.0,8.999999999999999e-08,0.0,0.0,0.0,8.999999999999999e-08
1758793485276397208,123362,1758793485267248512,base_link,-0.008117468864491209,-0.001566912814152432,0.015515982957649119,-0.9998455146859365,1.0,0.0,0.0,0.0,1.0,0.0,0.0,0.0,1.0,-0.0006163048092275858,0.002019945764914155,0.00033721432555466863,1.2184696791468346e-07,0.0,0.0,0.0,1.2184696791468346e-07,0.0,0.0,0.0,1.2184696791468346e-07,-0.018690135329961777,0.19078871607780576,9.789386749267578,8.999999999999999e-08,0.0,0.0,0.0,8.999999999999999e-08,0.0,0.0,0.0,8.999999999999999e-08
1758793485283375736,123363,1758793485278248512,base_link,-0.008093459319546921,-0.0015668565085969993,0.015508017203280582,-0.9998458097138762,1.0,0.0,0.0,0.0,1.0,0.0,0.0,0.0,1.0,-0.002977097639814019,-0.0003219512291252613,-0.00013209332246333358,1.2184696791468346e-07,0.0,0.0,0.0,1.2184696791468346e-07,0.0,0.0,0.0,1.2184696791468346e-07,-0.01269261073321104,0.11001191288232923,9.799520492553711,8.999999999999999e-08,0.0,0.0,0.0,8.999999999999999e-08,0.0,0.0,0.0,8.999999999999999e-08
1758793485291162648,123364,1758793485282248512,base_link,-0.008092496198203996,-0.0015700560470890334,0.01549604749830344,-0.9998459783012702,1.0,0.0,0.0,0.0,1.0,0.0,0.0,0.0,1.0,-0.0010189253371208906,-0.0013852734118700032,-0.0034213752951472998,1.2184696791468346e-07,0.0,0.0,0.0,1.2184696791468346e-07,0.0,0.0,0.0,1.2184696791468346e-07,-0.025575388222932816,0.14799144864082456,9.789867401123047,8.999999999999999e-08,0.0,0.0,0.0,8.999999999999999e-08,0.0,0.0,0.0,8.999999999999999e-08
1758793485297497240,123365,1758793485293248512,base_link,-0.008079348027829867,-0.001557335272100585,0.01550793290958356,-0.9998458940075732,1.0,0.0,0.0,0.0,1.0,0.0,0.0,0.0,1.0,-0.002650192240253091,-0.0007254453375935553,0.0004777464782819153,1.2184696791468346e-07,0.0,0.0,0.0,1.2184696791468346e-07,0.0,0.0,0.0,1.2184696791468346e-07,-0.03548591956496239,0.1900382488966,9.82371997833252,8.999999999999999e-08,0.0,0.0,0.0,8.999999999999999e-08,0.0,0.0,0.0,8.999999999999999e-08
1758793485303357272,123366,1758793485297248512,base_link,-0.008075923925660611,-0.0015500461722139783,0.01550081009218519,-0.9998461047418157,1.0,0.0,0.0,0.0,1.0,0.0,0.0,0.0,1.0,-0.0007317147683352232,-0.0011218413710594175,0.0018601535120978954,1.2184696791468346e-07,0.0,0.0,0.0,1.2184696791468346e-07,0.0,0.0,0.0,1.2184696791468346e-07,-0.03952449932694435,0.15238092839717984,9.81213092803955,8.999999999999999e-08,0.0,0.0,0.0,8.999999999999999e-08,0.0,0.0,0.0,8.999999999999999e-08
1758793485311610232,123367,1758793485306247488,base_link,-0.00808369573867157,-0.0015605647743677327,0.015490610554845569,-0.9998461890355127,1.0,0.0,0.0,0.0,1.0,0.0,0.0,0.0,1.0,0.0011724180076271296,0.00212560361251235,0.00033823359990492436,1.2184696791468346e-07,0.0,0.0,0.0,1.2184696791468346e-07,0.0,0.0,0.0,1.2184696791468346e-07,-0.03640032559633255,0.12035138159990431,9.814203262329102,8.999999999999999e-08,0.0,0.0,0.0,8.999999999999999e-08,0.0,0.0,0.0,8.999999999999999e-08
1758793485319941144,123368,1758793485312247488,base_link,-0.008067767851929246,-0.0015647923008367275,0.015510293133100123,-0.9998459783012702,1.0,0.0,0.0,0.0,1.0,0.0,0.0,0.0,1.0,-0.0015673635061830282,0.00035822414793074126,-0.0005664266645908356,1.2184696791468346e-07,0.0,0.0,0.0,1.2184696791468346e-07,0.0,0.0,0.0,1.2184696791468346e-07,-0.05309325084090233,0.21380478143692136,9.809228897094727,8.999999999999999e-08,0.0,0.0,0.0,8.999999999999999e-08,0.0,0.0,0.0,8.999999999999999e-08
1758793485330792472,123369,1758793485323247488,base_link,-0.008070698045717514,-0.0015675038578483462,0.015502453819277121,-0.9998460625949671,1.0,0.0,0.0,0.0,1.0,0.0,0.0,0.0,1.0,-0.00012646871618926525,0.0008518507238477471,0.0013969751307740808,1.2184696791468346e-07,0.0,0.0,0.0,1.2184696791468346e-07,0.0,0.0,0.0,1.2184696791468346e-07,-0.02110407128930092,0.13802652060985685,9.797616004943848,8.999999999999999e-08,0.0,0.0,0.0,8.999999999999999e-08,0.0,0.0,0.0,8.999999999999999e-08
1758793485333187128,123370,1758793485327247488,base_link,-0.00808699570520107,-0.001568894703849206,0.015497354050607284,-0.9998460204481187,1.0,0.0,0.0,0.0,1.0,0.0,0.0,0.0,1.0,0.0022609864827245474,0.0022476492449641228,0.0011066109873354433,1.2184696791468346e-07,0.0,0.0,0.0,1.2184696791468346e-07,0.0,0.0,0.0,1.2184696791468346e-07,0.008880354464054108,0.14601141214370847,9.790306091308594,8.999999999999999e-08,0.0,0.0,0.0,8.999999999999999e-08,0.0,0.0,0.0,8.999999999999999e-08
1758793485340980312,123371,1758793485336247488,base_link,-0.008076753033196162,-0.0015696411640490043,0.015499334952487303,-0.9998460625949671,1.0,0.0,0.0,0.0,1.0,0.0,0.0,0.0,1.0,0.0001396180596202612,0.001298757269978523,-0.0024101592134684324,1.2184696791468346e-07,0.0,0.0,0.0,1.2184696791468346e-07,0.0,0.0,0.0,1.2184696791468346e-07,-0.02884354069828987,0.19075526297092557,9.843588829040527,8.999999999999999e-08,0.0,0.0,0.0,8.999999999999999e-08,0.0,0.0,0.0,8.999999999999999e-08
1758793485347562456,123372,1758793485342247488,base_link,-0.00806279880434426,-0.0015794669773803605,0.01549925065879028,-0.9998461468886641,1.0,0.0,0.0,0.0,1.0,0.0,0.0,0.0,1.0,-0.002558311680331826,0.0008679667953401803,-0.000854933517985046,1.2184696791468346e-07,0.0,0.0,0.0,1.2184696791468346e-07,0.0,0.0,0.0,1.2184696791468346e-07,-0.031457047909498215,0.1285838931798947,9.789937973022461,8.999999999999999e-08,0.0,0.0,0.0,8.999999999999999e-08,0.0,0.0,0.0,8.999999999999999e-08
1758793485357369848,123373,1758793485353247488,base_link,-0.00805911260146083,-0.0015887185399007556,0.015519523292924046,-0.9998458518607246,1.0,0.0,0.0,0.0,1.0,0.0,0.0,0.0,1.0,-0.000982780708000064,0.0020215110853314395,-0.003201348707079888,1.2184696791468346e-07,0.0,0.0,0.0,1.2184696791468346e-07,0.0,0.0,0.0,1.2184696791468346e-07,-0.009509207680821419,0.18401063978672147,9.841984748840332,8.999999999999999e-08,0.0,0.0,0.0,8.999999999999999e-08,0.0,0.0,0.0,8.999999999999999e-08
1758793485365547992,123374,1758793485357247488,base_link,-0.008063444177962086,-0.0015838607863376214,0.015528753452747913,-0.999845725420179,1.0,0.0,0.0,0.0,1.0,0.0,0.0,0.0,1.0,-0.0008496299851685762,-0.0020126942545175552,0.0009079932933673265,1.2184696791468346e-07,0.0,0.0,0.0,1.2184696791468346e-07,0.0,0.0,0.0,1.2184696791468346e-07,-0.05605919286608696,0.22535227239132047,9.814407348632812,8.999999999999999e-08,0.0,0.0,0.0,8.999999999999999e-08,0.0,0.0,0.0,8.999999999999999e-08
1758793485371251672,123375,1758793485368247488,base_link,-0.008050469204793555,-0.001573735335255133,0.015530102151900267,-0.999845809713876,1.0,0.0,0.0,0.0,1.0,0.0,0.0,0.0,1.0,-0.00045645260252058506,-0.002083080355077982,-0.0007050043204799292,1.2184696791468346e-07,0.0,0.0,0.0,1.2184696791468346e-07,0.0,0.0,0.0,1.2184696791468346e-07,0.0026790224947035313,0.12660112977028012,9.824251174926758,8.999999999999999e-08,0.0,0.0,0.0,8.999999999999999e-08,0.0,0.0,0.0,8.999999999999999e-08
1758793485381408728,123376,1758793485377247488,base_link,-0.008040681587043663,-0.001573736323071895,0.015532673109659442,-0.9998458518607246,1.0,0.0,0.0,0.0,1.0,0.0,0.0,0.0,1.0,-0.0003348717000335455,0.0008192153181880711,-0.0006005412433296443,1.2184696791468346e-07,0.0,0.0,0.0,1.2184696791468346e-07,0.0,0.0,0.0,1.2184696791468346e-07,-0.03177241235971451,0.18093827366829038,9.805395126342773,8.999999999999999e-08,0.0,0.0,0.0,8.999999999999999e-08,0.0,0.0,0.0,8.999999999999999e-08
1758793485387664984,123377,1758793485381247488,base_link,-0.008045819880567196,-0.0015783537078896154,0.015532673109659442,-0.9998457675670276,1.0,0.0,0.0,0.0,1.0,0.0,0.0,0.0,1.0,-0.00012736418284475803,0.0019071325659751894,0.0010066888062283395,1.2184696791468346e-07,0.0,0.0,0.0,1.2184696791468346e-07,0.0,0.0,0.0,1.2184696791468346e-07,-0.06456202268600464,0.1267879307270062,9.795686721801758,8.999999999999999e-08,0.0,0.0,0.0,8.999999999999999e-08,0.0,0.0,0.0,8.999999999999999e-08
1758793485392282040,123378,1758793485385247488,base_link,-0.008054421788930467,-0.0015757722134183234,0.015519818320863623,-0.9998458940075732,1.0,0.0,0.0,0.0,1.0,0.0,0.0,0.0,1.0,-0.00024699606001377106,-0.0013680779375135899,0.0005044246790930631,1.2184696791468346e-07,0.0,0.0,0.0,1.2184696791468346e-07,0.0,0.0,0.0,1.2184696791468346e-07,-0.04926690831780434,0.12481448799371839,9.778264999389648,8.999999999999999e-08,0.0,0.0,0.0,8.999999999999999e-08,0.0,0.0,0.0,8.999999999999999e-08
1758793485404823864,123379,1758793485396247488,base_link,-0.008032146850220205,-0.0015814590745170084,0.015541397507301175,-0.999845725420179,1.0,0.0,0.0,0.0,1.0,0.0,0.0,0.0,1.0,-0.003047067439183593,0.00039500254206359354,-0.002857301849871874,1.2184696791468346e-07,0.0,0.0,0.0,1.2184696791468346e-07,0.0,0.0,0.0,1.2184696791468346e-07,-0.02760552614927292,0.1880744993686688,9.807205200195312,8.999999999999999e-08,0.0,0.0,0.0,8.999999999999999e-08,0.0,0.0,0.0,8.999999999999999e-08
1758793485404827896,123380,1758793485400247488,base_link,-0.008027817249352474,-0.0015862252903935331,0.015532251641174331,-0.9998459361544216,1.0,0.0,0.0,0.0,1.0,0.0,0.0,0.0,1.0,-0.0030345444101840258,0.0011870141606777906,-0.0004716217517852785,1.2184696791468346e-07,0.0,0.0,0.0,1.2184696791468346e-07,0.0,0.0,0.0,1.2184696791468346e-07,-0.03452233225107193,0.20918874442577481,9.799494743347168,8.999999999999999e-08,0.0,0.0,0.0,8.999999999999999e-08,0.0,0.0,0.0,8.999999999999999e-08
1758793485414215352,123381,1758793485409245440,base_link,-0.00802557062476349,-0.0015798476161059745,0.015527151872504492,-0.9998460625949671,1.0,0.0,0.0,0.0,1.0,0.0,0.0,0.0,1.0,0.00018843100406229496,-0.0015235082246363163,0.00046702538384124653,1.2184696791468346e-07,0.0,0.0,0.0,1.2184696791468346e-07,0.0,0.0,0.0,1.2184696791468346e-07,-0.05534778907895088,0.17102828621864438,9.82827377319336,8.999999999999999e-08,0.0,0.0,0.0,8.999999999999999e-08,0.0,0.0,0.0,8.999999999999999e-08
1758793485420173240,123382,1758793485415245440,base_link,-0.008038666770121489,-0.0015746968102367878,0.015528289837414291,-0.9998459361544216,1.0,0.0,0.0,0.0,1.0,0.0,0.0,0.0,1.0,0.002516327425837517,-0.0012259986251592636,0.00015797093510627763,1.2184696791468346e-07,0.0,0.0,0.0,1.2184696791468346e-07,0.0,0.0,0.0,1.2184696791468346e-07,-0.029414068907499313,0.13540470600128293,9.79952335357666,8.999999999999999e-08,0.0,0.0,0.0,8.999999999999999e-08,0.0,0.0,0.0,8.999999999999999e-08
1758793485431809752,123383,1758793485426245440,base_link,-0.008030068483753013,-0.001575245048539683,0.015526603963473848,-0.9998460204481187,1.0,0.0,0.0,0.0,1.0,0.0,0.0,0.0,1.0,-0.0006987012457102537,0.00012645358219742794,0.0014789525885134935,1.2184696791468346e-07,0.0,0.0,0.0,1.2184696791468346e-07,0.0,0.0,0.0,1.2184696791468346e-07,-0.023394979536533356,0.19347037374973416,9.820629119873047,8.999999999999999e-08,0.0,0.0,0.0,8.999999999999999e-08,0.0,0.0,0.0,8.999999999999999e-08
1758793485435914456,123384,1758793485430245440,base_link,-0.008033271973512094,-0.0015796358940466581,0.01550919731503889,-0.9998462311823613,1.0,0.0,0.0,0.0,1.0,0.0,0.0,0.0,1.0,0.0004312843084335327,-0.0012145936489105222,0.002254591090604663,1.2184696791468346e-07,0.0,0.0,0.0,1.2184696791468346e-07,0.0,0.0,0.0,1.2184696791468346e-07,-0.04830871522426605,0.11047925800085187,9.800954818725586,8.999999999999999e-08,0.0,0.0,0.0,8.999999999999999e-08,0.0,0.0,0.0,8.999999999999999e-08
1758793485445293784,123385,1758793485441245440,base_link,-0.00803170002777154,-0.0015791189366078915,0.015523611537229563,-0.9998460625949672,1.0,0.0,0.0,0.0,1.0,0.0,0.0,0.0,1.0,0.00040794722735881805,-0.00026195356622338306,-0.0010255126981064677,1.2184696791468346e-07,0.0,0.0,0.0,1.2184696791468346e-07,0.0,0.0,0.0,1.2184696791468346e-07,-0.01667102612555027,0.1629561185836804,9.827329635620117,8.999999999999999e-08,0.0,0.0,0.0,8.999999999999999e-08,0.0,0.0,0.0,8.999999999999999e-08
1758793485454456952,123386,1758793485446245440,base_link,-0.0080157171525628,-0.0015774027696200885,0.015520071201954689,-0.9998462311823613,1.0,0.0,0.0,0.0,1.0,0.0,0.0,0.0,1.0,-0.0025026730727404356,-0.002063661348074674,0.002147843129932881,1.2184696791468346e-07,0.0,0.0,0.0,1.2184696791468346e-07,0.0,0.0,0.0,1.2184696791468346e-07,-0.0662401020526886,0.20031304657459378,9.82498836517334,8.999999999999999e-08,0.0,0.0,0.0,8.999999999999999e-08,0.0,0.0,0.0,8.999999999999999e-08
1758793485460460216,123387,1758793485456245440,base_link,-0.008028838651884354,-0.0015783695129578073,0.015509534489826978,-0.9998463154760583,1.0,0.0,0.0,0.0,1.0,0.0,0.0,0.0,1.0,0.0007206934969872236,0.0017819125205278399,0.001496823504567146,1.2184696791468346e-07,0.0,0.0,0.0,1.2184696791468346e-07,0.0,0.0,0.0,1.2184696791468346e-07,-0.026530861854553223,0.11007365584373593,9.795534133911133,8.999999999999999e-08,0.0,0.0,0.0,8.999999999999999e-08,0.0,0.0,0.0,8.999999999999999e-08
1758793485466330136,123388,1758793485460245440,base_link,-0.008034661173151684,-0.0015868334562466552,0.015514465671102718,-0.9998461047418157,1.0,0.0,0.0,0.0,1.0,0.0,0.0,0.0,1.0,0.0032532145269215107,0.0009768735617399214,-0.002061137929558754,1.2184696791468346e-07,0.0,0.0,0.0,1.2184696791468346e-07,0.0,0.0,0.0,1.2184696791468346e-07,-0.013205720111727715,0.18775175511837125,9.785920143127441,8.999999999999999e-08,0.0,0.0,0.0,8.999999999999999e-08,0.0,0.0,0.0,8.999999999999999e-08
1758793485473472024,123389,1758793485469245440,base_link,-0.00804460651231124,-0.0015857508090755315,0.015508143643826114,-0.9998461047418157,1.0,0.0,0.0,0.0,1.0,0.0,0.0,0.0,1.0,0.002644361462444067,0.0007411902770400048,0.001274565700441599,1.2184696791468346e-07,0.0,0.0,0.0,1.2184696791468346e-07,0.0,0.0,0.0,1.2184696791468346e-07,-0.03593331202864647,0.21441495418548703,9.771780014038086,8.999999999999999e-08,0.0,0.0,0.0,8.999999999999999e-08,0.0,0.0,0.0,8.999999999999999e-08
1758793485479460184,123390,1758793485475245440,base_link,-0.008053446155241891,-0.0015949460660404943,0.015497396197455793,-0.9998462311823612,1.0,0.0,0.0,0.0,1.0,0.0,0.0,0.0,1.0,0.002855299971997738,0.0012460651341825728,0.0029811589047312737,1.2184696791468346e-07,0.0,0.0,0.0,1.2184696791468346e-07,0.0,0.0,0.0,1.2184696791468346e-07,-0.03772944584488869,0.11287924647331357,9.769038200378418,8.999999999999999e-08,0.0,0.0,0.0,8.999999999999999e-08,0.0,0.0,0.0,8.999999999999999e-08
1758793485490113016,123391,1758793485486245440,base_link,-0.008036540000632959,-0.0015807978958309937,0.015519523292924045,-0.9998460204481187,1.0,0.0,0.0,0.0,1.0,0.0,0.0,0.0,1.0,-0.00271318550221622,-0.00208139093592763,-0.0038601318374276157,1.2184696791468346e-07,0.0,0.0,0.0,1.2184696791468346e-07,0.0,0.0,0.0,1.2184696791468346e-07,-0.04494607448577881,0.20928691327571988,9.814292907714844,8.999999999999999e-08,0.0,0.0,0.0,8.999999999999999e-08,0.0,0.0,0.0,8.999999999999999e-08
1758793485503681144,123392,1758793485490245440,base_link,-0.008037810332988856,-0.0015933754373889555,0.015506204888794605,-0.9998461890355127,1.0,0.0,0.0,0.0,1.0,0.0,0.0,0.0,1.0,-0.000442862743511796,0.0010319973807781935,0.0004261676804162561,1.2184696791468346e-07,0.0,0.0,0.0,1.2184696791468346e-07,0.0,0.0,0.0,1.2184696791468346e-07,-0.03392429277300835,0.19895917177200437,9.775232315063477,8.999999999999999e-08,0.0,0.0,0.0,8.999999999999999e-08,0.0,0.0,0.0,8.999999999999999e-08
1758793485503694328,123393,1758793485499245440,base_link,-0.00803876818597572,-0.0015994633520930016,0.015494066596423474,-0.9998463576229067,1.0,0.0,0.0,0.0,1.0,0.0,0.0,0.0,1.0,-0.0015305618289858103,0.0024749222211539745,0.0009720636880956587,1.2184696791468346e-07,0.0,0.0,0.0,1.2184696791468346e-07,0.0,0.0,0.0,1.2184696791468346e-07,-0.03361513465642929,0.12815429270267606,9.808531761169434,8.999999999999999e-08,0.0,0.0,0.0,8.999999999999999e-08,0.0,0.0,0.0,8.999999999999999e-08
1758793485513207384,123394,1758793485505239040,base_link,-0.008038720112226635,-0.0015947593686724813,0.015496721847879617,-0.9998463154760583,1.0,0.0,0.0,0.0,1.0,0.0,0.0,0.0,1.0,0.0008930277545005083,0.001163663575425744,0.00012674101162701832,1.2184696791468346e-07,0.0,0.0,0.0,1.2184696791468346e-07,0.0,0.0,0.0,1.2184696791468346e-07,-0.00490875169634819,0.16581690311432004,9.81400203704834,8.999999999999999e-08,0.0,0.0,0.0,8.999999999999999e-08,0.0,0.0,0.0,8.999999999999999e-08
1758793485520225368,123395,1758793485516239040,base_link,-0.00802550707521847,-0.0015880580197592488,0.01548395135278082,-0.9998466947976948,1.0,0.0,0.0,0.0,1.0,0.0,0.0,0.0,1.0,-0.0022092543076723814,-0.0018416978418827053,0.003180218860507012,1.2184696791468346e-07,0.0,0.0,0.0,1.2184696791468346e-07,0.0,0.0,0.0,1.2184696791468346e-07,-0.07416646182537079,0.18508367240429044,9.78057861328125,8.999999999999999e-08,0.0,0.0,0.0,8.999999999999999e-08,0.0,0.0,0.0,8.999999999999999e-08
1758793485525670648,123396,1758793485520239040,base_link,-0.008023921629315502,-0.0015843889390330232,0.015486859485328082,-0.9998466526508463,1.0,0.0,0.0,0.0,1.0,0.0,0.0,0.0,1.0,-0.0030093176756054163,-0.0022579184733331203,0.001735861646011472,1.2184696791468346e-07,0.0,0.0,0.0,1.2184696791468346e-07,0.0,0.0,0.0,1.2184696791468346e-07,-0.03448662534356117,0.1321449577808392,9.7354154586792,8.999999999999999e-08,0.0,0.0,0.0,8.999999999999999e-08,0.0,0.0,0.0,8.999999999999999e-08
1758793485533604760,123397,1758793485529239040,base_link,-0.008020151132735047,-0.001588251631844596,0.015497396197455793,-0.9998464840634522,1.0,0.0,0.0,0.0,1.0,0.0,0.0,0.0,1.0,0.0004105721600353718,-0.0016742348670959475,-0.001664874027483165,1.2184696791468346e-07,0.0,0.0,0.0,1.2184696791468346e-07,0.0,0.0,0.0,1.2184696791468346e-07,0.0011039446108043194,0.17192164063453794,9.816441535949707,8.999999999999999e-08,0.0,0.0,0.0,8.999999999999999e-08,0.0,0.0,0.0,8.999999999999999e-08
1758793485539283032,123398,1758793485535239040,base_link,-0.008019033582705,-0.0015796148206224025,0.01548184401035532,-0.9998467790913919,1.0,0.0,0.0,0.0,1.0,0.0,0.0,0.0,1.0,-0.0019893229473382235,-0.0009097820147871969,0.002142438432201743,1.2184696791468346e-07,0.0,0.0,0.0,1.2184696791468346e-07,0.0,0.0,0.0,1.2184696791468346e-07,-0.04077443107962608,0.18512360751628995,9.79346752166748,8.999999999999999e-08,0.0,0.0,0.0,8.999999999999999e-08,0.0,0.0,0.0,8.999999999999999e-08
1758793485543241112,123399,1758793485540239040,base_link,-0.008018272305253772,-0.0015839269700606733,0.015476954975928037,-0.9998468633850889,1.0,0.0,0.0,0.0,1.0,0.0,0.0,0.0,1.0,0.0005883851554244757,-0.00013544363901019064,0.002577700652182102,1.2184696791468346e-07,0.0,0.0,0.0,1.2184696791468346e-07,0.0,0.0,0.0,1.2184696791468346e-07,-0.01540437527000904,0.12832318246364713,9.801082611083984,8.999999999999999e-08,0.0,0.0,0.0,8.999999999999999e-08,0.0,0.0,0.0,8.999999999999999e-08
1758793485554237656,123400,1758793485550239040,base_link,-0.008010673030903906,-0.0015815163678892027,0.015488545359268524,-0.9998467369445433,1.0,0.0,0.0,0.0,1.0,0.0,0.0,0.0,1.0,-0.0027480667922645807,-0.0017329626716673379,-0.002992069348692894,1.2184696791468346e-07,0.0,0.0,0.0,1.2184696791468346e-07,0.0,0.0,0.0,1.2184696791468346e-07,-0.042968813329935074,0.1970435231924069,9.802431106567383,8.999999999999999e-08,0.0,0.0,0.0,8.999999999999999e-08,0.0,0.0,0.0,8.999999999999999e-08
1758793485564152216,123401,1758793485558239040,base_link,-0.008011205793410863,-0.0015813550244847467,0.015481253954476165,-0.9998468633850889,1.0,0.0,0.0,0.0,1.0,0.0,0.0,0.0,1.0,0.0006471509113907814,-0.002321237698197365,0.0005883928388357166,1.2184696791468346e-07,0.0,0.0,0.0,1.2184696791468346e-07,0.0,0.0,0.0,1.2184696791468346e-07,-0.035213179886341095,0.1832219213247311,9.790389060974121,8.999999999999999e-08,0.0,0.0,0.0,8.999999999999999e-08,0.0,0.0,0.0,8.999999999999999e-08
1758793485570177944,123402,1758793485564239040,base_link,-0.008007007572172474,-0.0015818377376090984,0.01549436162436305,-0.9998466526508464,1.0,0.0,0.0,0.0,1.0,0.0,0.0,0.0,1.0,-0.0012871355284005404,-0.0005823862738907338,-0.0011121336137875915,1.2184696791468346e-07,0.0,0.0,0.0,1.2184696791468346e-07,0.0,0.0,0.0,1.2184696791468346e-07,-0.059689100831747055,0.12267102301120877,9.787954330444336,8.999999999999999e-08,0.0,0.0,0.0,8.999999999999999e-08,0.0,0.0,0.0,8.999999999999999e-08
1758793485576110840,123403,1758793485573239040,base_link,-0.007993853145625519,-0.0015720201560840922,0.015483909205932306,-0.9998469898256344,1.0,0.0,0.0,0.0,1.0,0.0,0.0,0.0,1.0,-0.00066235545091331,-7.338821887968968e-07,0.0008191668312065303,1.2184696791468346e-07,0.0,0.0,0.0,1.2184696791468346e-07,0.0,0.0,0.0,1.2184696791468346e-07,-0.025204546749591827,0.173268109560014,9.802241325378418,8.999999999999999e-08,0.0,0.0,0.0,8.999999999999999e-08,0.0,0.0,0.0,8.999999999999999e-08
1758793485583337240,123404,1758793485577239040,base_link,-0.007999637471311384,-0.0015654482111666784,0.015486227282600415,-0.9998468633850889,1.0,0.0,0.0,0.0,1.0,0.0,0.0,0.0,1.0,-0.0011824315879493952,-0.0015441724099218843,0.0014217196730896833,1.2184696791468346e-07,0.0,0.0,0.0,1.2184696791468346e-07,0.0,0.0,0.0,1.2184696791468346e-07,-0.03253522515296936,0.16826936602592588,9.795851707458496,8.999999999999999e-08,0.0,0.0,0.0,8.999999999999999e-08,0.0,0.0,0.0,8.999999999999999e-08
1758793485592701240,123405,1758793485586239040,base_link,-0.007992683899851596,-0.001561305307666959,0.015476238479503348,-0.9998470741193314,1.0,0.0,0.0,0.0,1.0,0.0,0.0,0.0,1.0,-0.0019762406591326,-0.0009675421752035617,0.0012671465519815686,1.2184696791468346e-07,0.0,0.0,0.0,1.2184696791468346e-07,0.0,0.0,0.0,1.2184696791468346e-07,-0.03783291205763817,0.14539802074432492,9.810590744018555,8.999999999999999e-08,0.0,0.0,0.0,8.999999999999999e-08,0.0,0.0,0.0,8.999999999999999e-08
1758793485594211928,123406,1758793485588239040,base_link,-0.00799135034722293,-0.0015650563771844287,0.015488840387208101,-0.9998469476787859,1.0,0.0,0.0,0.0,1.0,0.0,0.0,0.0,1.0,-0.0007398736197501421,-0.00040818331763148335,-0.002409321255981922,1.2184696791468346e-07,0.0,0.0,0.0,1.2184696791468346e-07,0.0,0.0,0.0,1.2184696791468346e-07,-0.013920858502388,0.13936159014701963,9.78101634979248,8.999999999999999e-08,0.0,0.0,0.0,8.999999999999999e-08,0.0,0.0,0.0,8.999999999999999e-08
1758793485600203448,123407,1758793485592239040,base_link,-0.008002922291317204,-0.0015633125513272903,0.015494825239696672,-0.9998467790913919,1.0,0.0,0.0,0.0,1.0,0.0,0.0,0.0,1.0,0.003406005911529064,6.195669993758212e-05,0.000927958928514272,1.2184696791468346e-07,0.0,0.0,0.0,1.2184696791468346e-07,0.0,0.0,0.0,1.2184696791468346e-07,-0.01042170450091362,0.1715518534183514,9.830591201782227,8.999999999999999e-08,0.0,0.0,0.0,8.999999999999999e-08,0.0,0.0,0.0,8.999999999999999e-08
1758793485606155160,123408,1758793485603237760,base_link,-0.008011550212188539,-0.0015628644117896082,0.015486859485328082,-0.9998468212382403,1.0,0.0,0.0,0.0,1.0,0.0,0.0,0.0,1.0,0.001335507957264781,0.0005110611673444512,0.0014044081326574087,1.2184696791468346e-07,0.0,0.0,0.0,1.2184696791468346e-07,0.0,0.0,0.0,1.2184696791468346e-07,-0.06835152208805084,0.1476244181394589,9.792466163635254,8.999999999999999e-08,0.0,0.0,0.0,8.999999999999999e-08,0.0,0.0,0.0,8.999999999999999e-08
1758793485613291160,123409,1758793485607237760,base_link,-0.008014009217381346,-0.0015799648370283957,0.015498323428123035,-0.9998465683571492,1.0,0.0,0.0,0.0,1.0,0.0,0.0,0.0,1.0,0.0020704297348856926,0.00035913172177970377,-0.002719178330153227,1.2184696791468346e-07,0.0,0.0,0.0,1.2184696791468346e-07,0.0,0.0,0.0,1.2184696791468346e-07,-0.03783437982201576,0.10466122627258422,9.8066987991333,8.999999999999999e-08,0.0,0.0,0.0,8.999999999999999e-08,0.0,0.0,0.0,8.999999999999999e-08
1758793485626514072,123410,1758793485618237760,base_link,-0.008015555809158343,-0.0015721719505931817,0.015498407721820057,-0.9998465683571492,1.0,0.0,0.0,0.0,1.0,0.0,0.0,0.0,1.0,-0.0010680642444640398,-0.0008110562339425088,-0.0009379374096170067,1.2184696791468346e-07,0.0,0.0,0.0,1.2184696791468346e-07,0.0,0.0,0.0,1.2184696791468346e-07,-0.052039261907339096,0.19073575735092282,9.818570137023926,8.999999999999999e-08,0.0,0.0,0.0,8.999999999999999e-08,0.0,0.0,0.0,8.999999999999999e-08
1758793485629211672,123411,1758793485622237760,base_link,-0.008010471516284463,-0.0015713675384766812,0.015506921385219292,-0.9998464840634523,1.0,0.0,0.0,0.0,1.0,0.0,0.0,0.0,1.0,-0.000825423514470458,-0.0009966245852410791,0.002371362643316388,1.2184696791468346e-07,0.0,0.0,0.0,1.2184696791468346e-07,0.0,0.0,0.0,1.2184696791468346e-07,-0.06846244633197784,0.17344449460506559,9.83359146118164,8.999999999999999e-08,0.0,0.0,0.0,8.999999999999999e-08,0.0,0.0,0.0,8.999999999999999e-08
1758793485635444952,123412,1758793485631237760,base_link,-0.008020408952909923,-0.0015708439955928349,0.015481675422961277,-0.9998467790913919,1.0,0.0,0.0,0.0,1.0,0.0,0.0,0.0,1.0,0.00014501065015792847,0.0003998144529759885,0.0011024175910279155,1.2184696791468346e-07,0.0,0.0,0.0,1.2184696791468346e-07,0.0,0.0,0.0,1.2184696791468346e-07,-0.05245908349752426,0.16749361157417417,9.829513549804688,8.999999999999999e-08,0.0,0.0,0.0,8.999999999999999e-08,0.0,0.0,0.0,8.999999999999999e-08
1758793485641960536,123413,1758793485637237760,base_link,-0.008020132693488823,-0.001580438659801889,0.015501400148064344,-0.9998464419166038,1.0,0.0,0.0,0.0,1.0,0.0,0.0,0.0,1.0,-3.261701203882694e-05,0.001261021941900253,-0.0014834479661658408,1.2184696791468346e-07,0.0,0.0,0.0,1.2184696791468346e-07,0.0,0.0,0.0,1.2184696791468346e-07,-0.03892093896865845,0.22615790367126584,9.818132400512695,8.999999999999999e-08,0.0,0.0,0.0,8.999999999999999e-08,0.0,0.0,0.0,8.999999999999999e-08
1758793485653135384,123414,1758793485648237760,base_link,-0.008009251562583425,-0.0015768693485686224,0.015490315526905989,-0.9998467369445433,1.0,0.0,0.0,0.0,1.0,0.0,0.0,0.0,1.0,-0.0017476484645158052,0.00012015691027045268,0.0014762303326278925,1.2184696791468346e-07,0.0,0.0,0.0,1.2184696791468346e-07,0.0,0.0,0.0,1.2184696791468346e-07,-0.05509226396679878,0.15766038000583768,9.768325805664062,8.999999999999999e-08,0.0,0.0,0.0,8.999999999999999e-08,0.0,0.0,0.0,8.999999999999999e-08
1758793485658270968,123415,1758793485652237760,base_link,-0.008010567993054881,-0.0015807718833229282,0.015494951680242206,-0.9998466526508464,1.0,0.0,0.0,0.0,1.0,0.0,0.0,0.0,1.0,0.0017265225760638714,0.0004002046771347521,-0.0013279929989948869,1.2184696791468346e-07,0.0,0.0,0.0,1.2184696791468346e-07,0.0,0.0,0.0,1.2184696791468346e-07,-0.021820174530148506,0.1111341267824185,9.812483787536621,8.999999999999999e-08,0.0,0.0,0.0,8.999999999999999e-08,0.0,0.0,0.0,8.999999999999999e-08
1758793485666195832,123416,1758793485662237760,base_link,-0.008023519587893378,-0.0015991683241534252,0.015507848615886536,-0.9998463154760583,1.0,0.0,0.0,0.0,1.0,0.0,0.0,0.0,1.0,0.0024983780458569527,0.0037546162493526936,-0.000830941717140377,1.2184696791468346e-07,0.0,0.0,0.0,1.2184696791468346e-07,0.0,0.0,0.0,1.2184696791468346e-07,-0.03832848742604256,0.2086314707994473,9.790355682373047,8.999999999999999e-08,0.0,0.0,0.0,8.999999999999999e-08,0.0,0.0,0.0,8.999999999999999e-08
1758793485675223320,123417,1758793485667237760,base_link,-0.00802999242186234,-0.001590843663028016,0.015506247035643116,-0.9998463154760583,1.0,0.0,0.0,0.0,1.0,0.0,0.0,0.0,1.0,0.002843802561983466,0.0009862813167274,0.0017825891263782976,1.2184696791468346e-07,0.0,0.0,0.0,1.2184696791468346e-07,0.0,0.0,0.0,1.2184696791468346e-07,-0.052280325442552567,0.15674036741256833,9.815800666809082,8.999999999999999e-08,0.0,0.0,0.0,8.999999999999999e-08,0.0,0.0,0.0,8.999999999999999e-08
