%time,field.header.seq,field.header.stamp,field.header.frame_id,field.orientation.x,field.orientation.y,field.orientation.z,field.orientation.w,field.orientation_covariance0,field.orientation_covariance1,field.orientation_covariance2,field.orientation_covariance3,field.orientation_covariance4,field.orientation_covariance5,field.orientation_covariance6,field.orientation_covariance7,field.orientation_covariance8,field.angular_velocity.x,field.angular_velocity.y,field.angular_velocity.z,field.angular_velocity_covariance0,field.angular_velocity_covariance1,field.angular_velocity_covariance2,field.angular_velocity_covariance3,field.angular_velocity_covariance4,field.angular_velocity_covariance5,field.angular_velocity_covariance6,field.angular_velocity_covariance7,field.angular_velocity_covariance8,field.linear_acceleration.x,field.linear_acceleration.y,field.linear_acceleration.z,field.linear_acceleration_covariance0,field.linear_acceleration_covariance1,field.linear_acceleration_covariance2,field.linear_acceleration_covariance3,field.linear_acceleration_covariance4,field.linear_acceleration_covariance5,field.linear_acceleration_covariance6,field.linear_acceleration_covariance7,field.linear_acceleration_covariance8
1758875274044058288,35524,1758875273965151232,base_link,0.0011995167600495685,0.006301828728757575,-0.019273332355546683,-0.9997937162091166,1.0,0.0,0.0,0.0,1.0,0.0,0.0,0.0,1.0,0.0008377607446163893,-0.002195216948166489,0.002108292188495398,1.2184696791468346e-07,0.0,0.0,0.0,1.2184696791468346e-07,0.0,0.0,0.0,1.2184696791468346e-07,0.12336856126785278,-0.00888758338987707,9.810007095336914,8.999999999999999e-08,0.0,0.0,0.0,8.999999999999999e-08,0.0,0.0,0.0,8.999999999999999e-08
1758875274044087632,35525,1758875273978151232,base_link,0.001212223376331095,0.006296860010444845,-0.019271857215848738,-0.9997937583559652,1.0,0.0,0.0,0.0,1.0,0.0,0.0,0.0,1.0,0.0027943586464971304,0.0014994973316788676,0.0010475491872057317,1.2184696791468346e-07,0.0,0.0,0.0,1.2184696791468346e-07,0.0,0.0,0.0,1.2184696791468346e-07,0.11290645599365234,-0.013429309241472474,9.807747840881348,8.999999999999999e-08,0.0,0.0,0.0,8.999999999999999e-08,0.0,0.0,0.0,8.999999999999999e-08
1758875274044123664,35526,1758875273984151232,base_link,0.0012039418498709584,0.006297294979092367,-0.019267726824694655,-0.9997938426496622,1.0,0.0,0.0,0.0,1.0,0.0,0.0,0.0,1.0,-0.0004665448796004057,0.00039629614911973466,-0.0008169632637873292,1.2184696791468346e-07,0.0,0.0,0.0,1.2184696791468346e-07,0.0,0.0,0.0,1.2184696791468346e-07,0.12454867362976074,0.013032967224718344,9.8360595703125,8.999999999999999e-08,0.0,0.0,0.0,8.999999999999999e-08,0.0,0.0,0.0,8.999999999999999e-08
1758875274044139568,35527,1758875273993151232,base_link,0.0012016175170300332,0.0062961981732143225,-0.01927691483767012,-0.999793674062268,1.0,0.0,0.0,0.0,1.0,0.0,0.0,0.0,1.0,-0.00035323435440659523,-0.001689620083197951,0.0021855970844626427,1.2184696791468346e-07,0.0,0.0,0.0,1.2184696791468346e-07,0.0,0.0,0.0,1.2184696791468346e-07,0.10820772498846054,-0.09639739245176196,9.794930458068848,8.999999999999999e-08,0.0,0.0,0.0,8.999999999999999e-08,0.0,0.0,0.0,8.999999999999999e-08
1758875274044178288,35528,1758875273999151232,base_link,0.0012119500803602823,0.006299184672558024,-0.019282899690158634,-0.9997935054748741,1.0,0.0,0.0,0.0,1.0,0.0,0.0,0.0,1.0,-0.002367195673286915,0.002140053315088153,-2.186466008424785e-05,1.2184696791468346e-07,0.0,0.0,0.0,1.2184696791468346e-07,0.0,0.0,0.0,1.2184696791468346e-07,0.13221928477287292,-0.03520239144563555,9.791714668273926,8.999999999999999e-08,0.0,0.0,0.0,8.999999999999999e-08,0.0,0.0,0.0,8.999999999999999e-08
1758875274044537296,35529,1758875274010151232,base_link,0.001235586230568544,0.006300974925802975,-0.01927468105469898,-0.9997936319154196,1.0,0.0,0.0,0.0,1.0,0.0,0.0,0.0,1.0,-0.0052644009701907635,0.00034795003011822695,-0.0005395736079663038,1.2184696791468346e-07,0.0,0.0,0.0,1.2184696791468346e-07,0.0,0.0,0.0,1.2184696791468346e-07,0.1038711667060852,0.009925017133356345,9.836682319641113,8.999999999999999e-08,0.0,0.0,0.0,8.999999999999999e-08,0.0,0.0,0.0,8.999999999999999e-08
1758875274044569840,35530,1758875274014151232,base_link,0.0012365969317521704,0.0062952220456173645,-0.01929626024113653,-0.9997932947406315,1.0,0.0,0.0,0.0,1.0,0.0,0.0,0.0,1.0,-0.0023067952133715153,9.667756967246549e-05,0.0012842391151934862,1.2184696791468346e-07,0.0,0.0,0.0,1.2184696791468346e-07,0.0,0.0,0.0,1.2184696791468346e-07,0.12379823625087738,0.004482736345381745,9.803922653198242,8.999999999999999e-08,0.0,0.0,0.0,8.999999999999999e-08,0.0,0.0,0.0,8.999999999999999e-08
1758875274044609904,35531,1758875274023151232,base_link,0.0012442870852441387,0.006299414669227437,-0.019286945787615643,-0.9997934211811771,1.0,0.0,0.0,0.0,1.0,0.0,0.0,0.0,1.0,-0.0002506349701434374,0.0001786120701581238,-0.0012650740100070834,1.2184696791468346e-07,0.0,0.0,0.0,1.2184696791468346e-07,0.0,0.0,0.0,1.2184696791468346e-07,0.12355001270771027,-0.04273479804396509,9.798957824707031,8.999999999999999e-08,0.0,0.0,0.0,8.999999999999999e-08,0.0,0.0,0.0,8.999999999999999e-08
1758875274044638064,35532,1758875274029151232,base_link,0.00123253684022433,0.006290906109548173,-0.019276029753851332,-0.9997936319154196,1.0,0.0,0.0,0.0,1.0,0.0,0.0,0.0,1.0,0.0029665371403098106,0.002181981690227985,-0.0028355713002383713,1.2184696791468346e-07,0.0,0.0,0.0,1.2184696791468346e-07,0.0,0.0,0.0,1.2184696791468346e-07,0.14670050144195557,-0.0051222350448357976,9.803319931030273,8.999999999999999e-08,0.0,0.0,0.0,8.999999999999999e-08,0.0,0.0,0.0,8.999999999999999e-08
1758875274046944080,35533,1758875274040151232,base_link,0.0012360719071431816,0.006292529421760351,-0.01928117166936968,-0.9997935476217227,1.0,0.0,0.0,0.0,1.0,0.0,0.0,0.0,1.0,0.00105684669688344,-0.0008325001690536736,0.0011589732021093369,1.2184696791468346e-07,0.0,0.0,0.0,1.2184696791468346e-07,0.0,0.0,0.0,1.2184696791468346e-07,0.14670050144195557,-0.0051222350448357976,9.803319931030273,8.999999999999999e-08,0.0,0.0,0.0,8.999999999999999e-08,0.0,0.0,0.0,8.999999999999999e-08
1758875274056409168,35534,1758875274049151232,base_link,0.0012210111588817434,0.006284406110618257,-0.0193003484854421,-0.999793252593783,1.0,0.0,0.0,0.0,1.0,0.0,0.0,0.0,1.0,0.001856124959886074,0.000674483133479953,0.0016914570005610585,1.2184696791468346e-07,0.0,0.0,0.0,1.2184696791468346e-07,0.0,0.0,0.0,1.2184696791468346e-07,0.14069435000419617,-0.06513152271509051,9.801966667175293,8.999999999999999e-08,0.0,0.0,0.0,8.999999999999999e-08,0.0,0.0,0.0,8.999999999999999e-08
1758875274065488848,35535,1758875274059149952,base_link,0.0012033424097325671,0.006289453854271944,-0.01929166623464888,-0.9997934211811771,1.0,0.0,0.0,0.0,1.0,0.0,0.0,0.0,1.0,0.0034149966668337584,-0.000340057071298361,-0.0011205595219507813,1.2184696791468346e-07,0.0,0.0,0.0,1.2184696791468346e-07,0.0,0.0,0.0,1.2184696791468346e-07,0.10769816488027573,-0.008135441690682168,9.770185470581055,8.999999999999999e-08,0.0,0.0,0.0,8.999999999999999e-08,0.0,0.0,0.0,8.999999999999999e-08
1758875274071443088,35536,1758875274064149952,base_link,0.0011975495229680972,0.006290493366777795,-0.019290148948102482,-0.9997934211811771,1.0,0.0,0.0,0.0,1.0,0.0,0.0,0.0,1.0,0.003792327828705311,-0.0011882774997502568,-0.0017329632537439463,1.2184696791468346e-07,0.0,0.0,0.0,1.2184696791468346e-07,0.0,0.0,0.0,1.2184696791468346e-07,0.10466505587100983,0.006816864479334363,9.800753593444824,8.999999999999999e-08,0.0,0.0,0.0,8.999999999999999e-08,0.0,0.0,0.0,8.999999999999999e-08
1758875274079478416,35537,1758875274073149952,base_link,0.0011895980919425868,0.006289443811468198,-0.01928441697670498,-0.9997935897685711,1.0,0.0,0.0,0.0,1.0,0.0,0.0,0.0,1.0,0.0010549898725003004,-0.0022260381374508142,-0.00031366362236440155,1.2184696791468346e-07,0.0,0.0,0.0,1.2184696791468346e-07,0.0,0.0,0.0,1.2184696791468346e-07,0.0986855998635292,-0.058783330023287526,9.81125545501709,8.999999999999999e-08,0.0,0.0,0.0,8.999999999999999e-08,0.0,0.0,0.0,8.999999999999999e-08
1758875274084672912,35538,1758875274079149952,base_link,0.0011796339842645547,0.006283849805145138,-0.019293309961740814,-0.9997934633280257,1.0,0.0,0.0,0.0,1.0,0.0,0.0,0.0,1.0,0.002278780099004507,0.0033270178828388453,-0.0003402819857001309,1.2184696791468346e-07,0.0,0.0,0.0,1.2184696791468346e-07,0.0,0.0,0.0,1.2184696791468346e-07,0.1408214420080185,-0.0025133180897670845,9.849790573120117,8.999999999999999e-08,0.0,0.0,0.0,8.999999999999999e-08,0.0,0.0,0.0,8.999999999999999e-08
1758875274092492208,35539,1758875274089149952,base_link,0.001168479228116089,0.006278775390438878,-0.01928146669730926,-0.9997937583559652,1.0,0.0,0.0,0.0,1.0,0.0,0.0,0.0,1.0,0.0019235637737438083,0.0008920237887650727,-0.0007374176057055594,1.2184696791468346e-07,0.0,0.0,0.0,1.2184696791468346e-07,0.0,0.0,0.0,1.2184696791468346e-07,0.11576676368713379,-0.030336216092108476,9.819587707519531,8.999999999999999e-08,0.0,0.0,0.0,8.999999999999999e-08,0.0,0.0,0.0,8.999999999999999e-08
1758875274102905200,35540,1758875274093149952,base_link,0.001177500464694817,0.006276313915704166,-0.019295670185257432,-0.9997934633280257,1.0,0.0,0.0,0.0,1.0,0.0,0.0,0.0,1.0,-0.0004146208520978689,-0.0014798110350966451,0.0011891798349097373,1.2184696791468346e-07,0.0,0.0,0.0,1.2184696791468346e-07,0.0,0.0,0.0,1.2184696791468346e-07,0.09634941816329956,0.005500125233085163,9.793923377990723,8.999999999999999e-08,0.0,0.0,0.0,8.999999999999999e-08,0.0,0.0,0.0,8.999999999999999e-08
1758875274109343632,35541,1758875274104149952,base_link,0.0011710057341209647,0.006283710852253954,-0.019286397878585,-0.9997936319154196,1.0,0.0,0.0,0.0,1.0,0.0,0.0,0.0,1.0,-0.0009315845090895891,-0.0013719587586820126,0.0003169113770127298,1.2184696791468346e-07,0.0,0.0,0.0,1.2184696791468346e-07,0.0,0.0,0.0,1.2184696791468346e-07,0.13863925635814667,-0.0009348741732525737,9.806580543518066,8.999999999999999e-08,0.0,0.0,0.0,8.999999999999999e-08,0.0,0.0,0.0,8.999999999999999e-08
1758875274119446352,35542,1758875274108149952,base_link,0.0011685190700588223,0.006276159322380916,-0.01930620689738514,-0.9997932947406315,1.0,0.0,0.0,0.0,1.0,0.0,0.0,0.0,1.0,1.0022427886724472e-05,0.000417073024436832,0.004213754553347826,1.2184696791468346e-07,0.0,0.0,0.0,1.2184696791468346e-07,0.0,0.0,0.0,1.2184696791468346e-07,0.13384810090065002,0.01712921261787535,9.8430757522583,8.999999999999999e-08,0.0,0.0,0.0,8.999999999999999e-08,0.0,0.0,0.0,8.999999999999999e-08
1758875274122374608,35543,1758875274119149952,base_link,0.0011604981625877194,0.0062762711103111464,-0.019311390959752,-0.999793168300086,1.0,0.0,0.0,0.0,1.0,0.0,0.0,0.0,1.0,0.003877635346725583,0.001689648721367121,0.0025382982566952705,1.2184696791468346e-07,0.0,0.0,0.0,1.2184696791468346e-07,0.0,0.0,0.0,1.2184696791468346e-07,0.10927693545818329,-0.06143708899617075,9.804414749145508,8.999999999999999e-08,0.0,0.0,0.0,8.999999999999999e-08,0.0,0.0,0.0,8.999999999999999e-08
1758875274131635696,35544,1758875274123149952,base_link,0.0011600597365815299,0.006277590668869017,-0.019308820001992827,-0.9997932104469346,1.0,0.0,0.0,0.0,1.0,0.0,0.0,0.0,1.0,0.001204926986247301,0.0007196667138487098,-0.001869847415946424,1.2184696791468346e-07,0.0,0.0,0.0,1.2184696791468346e-07,0.0,0.0,0.0,1.2184696791468346e-07,0.11800767481327057,-0.03036495670676111,9.818672180175781,8.999999999999999e-08,0.0,0.0,0.0,8.999999999999999e-08,0.0,0.0,0.0,8.999999999999999e-08
1758875274145558896,35545,1758875274138149952,base_link,0.0011497818324454439,0.0062780325522338734,-0.019314341239147718,-0.999793168300086,1.0,0.0,0.0,0.0,1.0,0.0,0.0,0.0,1.0,-0.002667049178853631,-0.001550836954265833,0.0004880970227532091,1.2184696791468346e-07,0.0,0.0,0.0,1.2184696791468346e-07,0.0,0.0,0.0,1.2184696791468346e-07,0.100429967045784,-0.039833180606364,9.821996688842773,8.999999999999999e-08,0.0,0.0,0.0,8.999999999999999e-08,0.0,0.0,0.0,8.999999999999999e-08
1758875274153340176,35546,1758875274149149952,base_link,0.0011569928948078545,0.006278087211428036,-0.019297145324955262,-0.9997934211811771,1.0,0.0,0.0,0.0,1.0,0.0,0.0,0.0,1.0,-0.0011768776457756758,-0.0010984768159687523,-0.002966095693409443,1.2184696791468346e-07,0.0,0.0,0.0,1.2184696791468346e-07,0.0,0.0,0.0,1.2184696791468346e-07,0.1232924535870552,-0.03397013247012972,9.805602073669434,8.999999999999999e-08,0.0,0.0,0.0,8.999999999999999e-08,0.0,0.0,0.0,8.999999999999999e-08
1758875274166614736,35547,1758875274153149696,base_link,0.0011557436358762112,0.006278641705903757,-0.019283826920825826,-0.9997936740622682,1.0,0.0,0.0,0.0,1.0,0.0,0.0,0.0,1.0,0.00012393342331051826,0.0001579655800014734,-0.00019865424837917092,1.2184696791468346e-07,0.0,0.0,0.0,1.2184696791468346e-07,0.0,0.0,0.0,1.2184696791468346e-07,0.10392940789461136,0.004403426777572642,9.814330101013184,8.999999999999999e-08,0.0,0.0,0.0,8.999999999999999e-08,0.0,0.0,0.0,8.999999999999999e-08
1758875274171488272,35548,1758875274164149696,base_link,0.0011373310607052684,0.006271080627135353,-0.019288168046222465,-0.9997937162091166,1.0,0.0,0.0,0.0,1.0,0.0,0.0,0.0,1.0,-0.000701376935467124,0.0015237710904330013,-0.0016632090555503967,1.2184696791468346e-07,0.0,0.0,0.0,1.2184696791468346e-07,0.0,0.0,0.0,1.2184696791468346e-07,0.10523742437362671,-0.03585232049226641,9.79050350189209,8.999999999999999e-08,0.0,0.0,0.0,8.999999999999999e-08,0.0,0.0,0.0,8.999999999999999e-08
1758875274174655888,35549,1758875274168149696,base_link,0.001166201322662977,0.006265911382019943,-0.019284206242462423,-0.9997938005028136,1.0,0.0,0.0,0.0,1.0,0.0,0.0,0.0,1.0,-0.003782332642003894,0.0001831478439271447,-0.0023614726960659027,1.2184696791468346e-07,0.0,0.0,0.0,1.2184696791468346e-07,0.0,0.0,0.0,1.2184696791468346e-07,0.12238913774490356,-0.001551446039228431,9.802167892456055,8.999999999999999e-08,0.0,0.0,0.0,8.999999999999999e-08,0.0,0.0,0.0,8.999999999999999e-08
1758875274192640368,35550,1758875274191149696,base_link,0.0011745386607701649,0.006268388003278339,-0.019287282962403788,-0.999793674062268,1.0,0.0,0.0,0.0,1.0,0.0,0.0,0.0,1.0,-0.0011242737527936697,-4.286598414182647e-05,0.0013025655644014478,1.2184696791468346e-07,0.0,0.0,0.0,1.2184696791468346e-07,0.0,0.0,0.0,1.2184696791468346e-07,0.11893872171640396,-0.04937389120459436,9.84132194519043,8.999999999999999e-08,0.0,0.0,0.0,8.999999999999999e-08,0.0,0.0,0.0,8.999999999999999e-08
1758875274206007312,35551,1758875274197149696,base_link,0.0011682311214727067,0.00626531918587114,-0.0192667574471789,-0.9997941376776017,1.0,0.0,0.0,0.0,1.0,0.0,0.0,0.0,1.0,0.0021216869354248047,0.0019932414870709176,-0.0025750664062798028,1.2184696791468346e-07,0.0,0.0,0.0,1.2184696791468346e-07,0.0,0.0,0.0,1.2184696791468346e-07,0.10711649060249329,-0.049899157136677495,9.792384147644043,8.999999999999999e-08,0.0,0.0,0.0,8.999999999999999e-08,0.0,0.0,0.0,8.999999999999999e-08
1758875274215545776,35552,1758875274210149696,base_link,0.0011620264797546206,0.006260314741518852,-0.019275144670032603,-0.9997940112370562,1.0,0.0,0.0,0.0,1.0,0.0,0.0,0.0,1.0,-0.00025089248083531857,0.001113155158236623,0.002031699987128377,1.2184696791468346e-07,0.0,0.0,0.0,1.2184696791468346e-07,0.0,0.0,0.0,1.2184696791468346e-07,0.10430414229631424,-0.012965803965924973,9.776905059814453,8.999999999999999e-08,0.0,0.0,0.0,8.999999999999999e-08,0.0,0.0,0.0,8.999999999999999e-08
1758875274235407248,35553,1758875274225149696,base_link,0.0011770684594975807,0.006252518068452718,-0.019280750200884517,-0.9997938847965107,1.0,0.0,0.0,0.0,1.0,0.0,0.0,0.0,1.0,0.00021967478096485138,0.002310544485226274,0.001924154348671436,1.2184696791468346e-07,0.0,0.0,0.0,1.2184696791468346e-07,0.0,0.0,0.0,1.2184696791468346e-07,0.11690505594015121,-0.03001388162374376,9.828300476074219,8.999999999999999e-08,0.0,0.0,0.0,8.999999999999999e-08,0.0,0.0,0.0,8.999999999999999e-08
1758875274242665168,35554,1758875274236149696,base_link,0.001168171029286353,0.006232567297947254,-0.019269159817544033,-0.9997942641181473,1.0,0.0,0.0,0.0,1.0,0.0,0.0,0.0,1.0,0.00019650114700198174,-0.0011166916228830817,-0.0019151448504999278,1.2184696791468346e-07,0.0,0.0,0.0,1.2184696791468346e-07,0.0,0.0,0.0,1.2184696791468346e-07,0.1046392023563385,0.020552925765515574,9.81505298614502,8.999999999999999e-08,0.0,0.0,0.0,8.999999999999999e-08,0.0,0.0,0.0,8.999999999999999e-08
1758875274245469424,35555,1758875274240149696,base_link,0.0011614252286188322,0.006241298610306343,-0.0192699606076658,-0.9997942219712989,1.0,0.0,0.0,0.0,1.0,0.0,0.0,0.0,1.0,0.00017215125262737274,-0.0015497235581278803,-0.001755154808051884,1.2184696791468346e-07,0.0,0.0,0.0,1.2184696791468346e-07,0.0,0.0,0.0,1.2184696791468346e-07,0.08868394792079926,-0.04147831350564836,9.837981224060059,8.999999999999999e-08,0.0,0.0,0.0,8.999999999999999e-08,0.0,0.0,0.0,8.999999999999999e-08
1758875274255302608,35556,1758875274251149696,base_link,0.0011655416257021053,0.006230188470548294,-0.01927556613851777,-0.9997941798244502,1.0,0.0,0.0,0.0,1.0,0.0,0.0,0.0,1.0,-0.0009745575953274965,0.0016367372591048481,0.0016897199675440786,1.2184696791468346e-07,0.0,0.0,0.0,1.2184696791468346e-07,0.0,0.0,0.0,1.2184696791468346e-07,0.13243035972118378,-0.021449081599711168,9.818753242492676,8.999999999999999e-08,0.0,0.0,0.0,8.999999999999999e-08,0.0,0.0,0.0,8.999999999999999e-08
1758875274264550128,35557,1758875274255147392,base_link,0.0011702541702012295,0.006243034039721005,-0.01927417529251685,-0.9997941376776017,1.0,0.0,0.0,0.0,1.0,0.0,0.0,0.0,1.0,0.0009018483106046915,-0.0029656551778316498,-0.0004895405145362016,1.2184696791468346e-07,0.0,0.0,0.0,1.2184696791468346e-07,0.0,0.0,0.0,1.2184696791468346e-07,0.13574489951133728,-0.008995226584373704,9.805765151977539,8.999999999999999e-08,0.0,0.0,0.0,8.999999999999999e-08,0.0,0.0,0.0,8.999999999999999e-08
1758875274279094416,35558,1758875274270147392,base_link,0.0011535982625053304,0.006241967197618072,-0.019282309634279484,-0.9997939269433592,1.0,0.0,0.0,0.0,1.0,0.0,0.0,0.0,1.0,0.0012381428387016058,-0.0008287206292152403,0.0021662097424268723,1.2184696791468346e-07,0.0,0.0,0.0,1.2184696791468346e-07,0.0,0.0,0.0,1.2184696791468346e-07,0.12625083327293396,-0.048145975917576536,9.832524299621582,8.999999999999999e-08,0.0,0.0,0.0,8.999999999999999e-08,0.0,0.0,0.0,8.999999999999999e-08
1758875274284574000,35559,1758875274281147392,base_link,0.0011470554581823954,0.00624514681513874,-0.019261489091115132,-0.9997943484118442,1.0,0.0,0.0,0.0,1.0,0.0,0.0,0.0,1.0,0.001695605693385005,-0.00034268992021679916,-0.003125234507024288,1.2184696791468346e-07,0.0,0.0,0.0,1.2184696791468346e-07,0.0,0.0,0.0,1.2184696791468346e-07,0.11436545103788376,-0.012135480530558818,9.793173789978027,8.999999999999999e-08,0.0,0.0,0.0,8.999999999999999e-08,0.0,0.0,0.0,8.999999999999999e-08
1758875274294574224,35560,1758875274285147392,base_link,0.0011502016545692827,0.0062463417441484745,-0.019259592482932134,-0.9997943905586928,1.0,0.0,0.0,0.0,1.0,0.0,0.0,0.0,1.0,-0.00035750470124185085,0.0002722428180277349,0.0011588032357394695,1.2184696791468346e-07,0.0,0.0,0.0,1.2184696791468346e-07,0.0,0.0,0.0,1.2184696791468346e-07,0.12196576595306396,-0.02738933451473593,9.808721542358398,8.999999999999999e-08,0.0,0.0,0.0,8.999999999999999e-08,0.0,0.0,0.0,8.999999999999999e-08
1758875274302382704,35561,1758875274296147392,base_link,0.0011471817340918007,0.006237676450876311,-0.019264017902025796,-0.9997943484118442,1.0,0.0,0.0,0.0,1.0,0.0,0.0,0.0,1.0,0.0014717947924509645,9.116739965975317e-05,0.0027100106235593557,1.2184696791468346e-07,0.0,0.0,0.0,1.2184696791468346e-07,0.0,0.0,0.0,1.2184696791468346e-07,0.11148132383823395,-0.03813405707478403,9.808026313781738,8.999999999999999e-08,0.0,0.0,0.0,8.999999999999999e-08,0.0,0.0,0.0,8.999999999999999e-08
1758875274312712976,35562,1758875274309147392,base_link,0.0011463248030507884,0.006243764200944231,-0.019264355076813882,-0.9997943484118442,1.0,0.0,0.0,0.0,1.0,0.0,0.0,0.0,1.0,0.0016208640299737453,-0.001934468746185303,-0.0022270265035331245,1.2184696791468346e-07,0.0,0.0,0.0,1.2184696791468346e-07,0.0,0.0,0.0,1.2184696791468346e-07,0.10376639664173126,-0.06652753800153612,9.823643684387207,8.999999999999999e-08,0.0,0.0,0.0,8.999999999999999e-08,0.0,0.0,0.0,8.999999999999999e-08
1758875274318522128,35563,1758875274311147392,base_link,0.0011359599710396482,0.006244725675925885,-0.019260308979356766,-0.9997944327055414,1.0,0.0,0.0,0.0,1.0,0.0,0.0,0.0,1.0,0.00433187372982502,0.0012706383131444454,-0.0003740782849490644,1.2184696791468346e-07,0.0,0.0,0.0,1.2184696791468346e-07,0.0,0.0,0.0,1.2184696791468346e-07,0.09814061969518661,-0.013257201761006109,9.799080848693848,8.999999999999999e-08,0.0,0.0,0.0,8.999999999999999e-08,0.0,0.0,0.0,8.999999999999999e-08
1758875274325512048,35564,1758875274315147392,base_link,0.00112001150478145,0.006245989916745085,-0.01926351213984366,-0.9997943484118442,1.0,0.0,0.0,0.0,1.0,0.0,0.0,0.0,1.0,0.0026320768520236015,-0.0017144195735454561,-0.001168738002888858,1.2184696791468346e-07,0.0,0.0,0.0,1.2184696791468346e-07,0.0,0.0,0.0,1.2184696791468346e-07,0.08152850717306137,-0.0008120434358703982,9.822176933288574,8.999999999999999e-08,0.0,0.0,0.0,8.999999999999999e-08,0.0,0.0,0.0,8.999999999999999e-08
1758875274334639632,35565,1758875274330147392,base_link,0.0011371321802638578,0.006264192910126362,-0.019260351126205333,-0.9997943062649958,1.0,0.0,0.0,0.0,1.0,0.0,0.0,0.0,1.0,-0.0029602970462292433,-0.0022978330962359905,3.858585841953783e-05,1.2184696791468346e-07,0.0,0.0,0.0,1.2184696791468346e-07,0.0,0.0,0.0,1.2184696791468346e-07,0.12949420511722565,0.008967524394394168,9.797282218933105,8.999999999999999e-08,0.0,0.0,0.0,8.999999999999999e-08,0.0,0.0,0.0,8.999999999999999e-08
1758875274345857360,35566,1758875274341147392,base_link,0.0011365949725814708,0.006259841083381485,-0.019264818692147506,-0.9997942219712987,1.0,0.0,0.0,0.0,1.0,0.0,0.0,0.0,1.0,0.0010709355119615793,0.000500255264341831,-0.0017374554881826043,1.2184696791468346e-07,0.0,0.0,0.0,1.2184696791468346e-07,0.0,0.0,0.0,1.2184696791468346e-07,0.1439869999885559,-0.03994232788681864,9.812700271606445,8.999999999999999e-08,0.0,0.0,0.0,8.999999999999999e-08,0.0,0.0,0.0,8.999999999999999e-08
1758875274366748112,35567,1758875274360146624,base_link,0.001136616869186361,0.006267152738417491,-0.019245852610317585,-0.9997945591460868,1.0,0.0,0.0,0.0,1.0,0.0,0.0,0.0,1.0,-0.0016869266983121634,-0.0015908144414424896,-0.00042329251300543525,1.2184696791468346e-07,0.0,0.0,0.0,1.2184696791468346e-07,0.0,0.0,0.0,1.2184696791468346e-07,0.12065929919481277,0.011811796575785885,9.819811820983887,8.999999999999999e-08,0.0,0.0,0.0,8.999999999999999e-08,0.0,0.0,0.0,8.999999999999999e-08
1758875274370823760,35568,1758875274365146624,base_link,0.0011314706731287304,0.006270097420184935,-0.01924715916262137,-0.9997945169992384,1.0,0.0,0.0,0.0,1.0,0.0,0.0,0.0,1.0,-0.0007195386569947004,-0.0006909002549946307,0.0010971581796184182,1.2184696791468346e-07,0.0,0.0,0.0,1.2184696791468346e-07,0.0,0.0,0.0,1.2184696791468346e-07,0.10262741893529892,-0.03594008833169817,9.812671661376953,8.999999999999999e-08,0.0,0.0,0.0,8.999999999999999e-08,0.0,0.0,0.0,8.999999999999999e-08
1758875274386618832,35569,1758875274375146624,base_link,0.0011364359340827928,0.00626327572226287,-0.019232534206188145,-0.9997948120271779,1.0,0.0,0.0,0.0,1.0,0.0,0.0,0.0,1.0,-0.0011704813223332167,0.0003270108718425035,-0.00029689539223909383,1.2184696791468346e-07,0.0,0.0,0.0,1.2184696791468346e-07,0.0,0.0,0.0,1.2184696791468346e-07,0.1496877670288086,-0.023267436772583718,9.781408309936523,8.999999999999999e-08,0.0,0.0,0.0,8.999999999999999e-08,0.0,0.0,0.0,8.999999999999999e-08
1758875274395655568,35570,1758875274385146624,base_link,0.0011323911537147629,0.006252026464977509,-0.019238645499222138,-0.9997947698803294,1.0,0.0,0.0,0.0,1.0,0.0,0.0,0.0,1.0,0.0006112689152359962,0.0004602984990924595,-0.0014668569201603532,1.2184696791468346e-07,0.0,0.0,0.0,1.2184696791468346e-07,0.0,0.0,0.0,1.2184696791468346e-07,0.10640973597764969,-0.03300701826810717,9.81389331817627,8.999999999999999e-08,0.0,0.0,0.0,8.999999999999999e-08,0.0,0.0,0.0,8.999999999999999e-08
1758875274412595696,35571,1758875274405146624,base_link,0.0011570411331930641,0.006258196368472799,-0.01923481013600769,-0.9997948120271779,1.0,0.0,0.0,0.0,1.0,0.0,0.0,0.0,1.0,-0.002130313077941537,0.00024985289201140366,-0.0031853951513767242,1.2184696791468346e-07,0.0,0.0,0.0,1.2184696791468346e-07,0.0,0.0,0.0,1.2184696791468346e-07,0.13906773924827576,0.016897644847632655,9.800540924072266,8.999999999999999e-08,0.0,0.0,0.0,8.999999999999999e-08,0.0,0.0,0.0,8.999999999999999e-08
1758875274420501584,35572,1758875274409146624,base_link,0.0011611394203023676,0.006250269962138591,-0.019237844709100484,-0.9997948120271779,1.0,0.0,0.0,0.0,1.0,0.0,0.0,0.0,1.0,0.0015581784537062049,0.0008272244594991209,0.0016604334814473987,1.2184696791468346e-07,0.0,0.0,0.0,1.2184696791468346e-07,0.0,0.0,0.0,1.2184696791468346e-07,0.08633821457624435,0.0031951549462986063,9.792023658752441,8.999999999999999e-08,0.0,0.0,0.0,8.999999999999999e-08,0.0,0.0,0.0,8.999999999999999e-08
1758875274424817456,35573,1758875274420146624,base_link,0.0011504405415895536,0.006250551983824135,-0.01925369192414053,-0.9997944748523898,1.0,0.0,0.0,0.0,1.0,0.0,0.0,0.0,1.0,0.0007119984365999699,4.752632230520272e-05,0.0019261649576947093,1.2184696791468346e-07,0.0,0.0,0.0,1.2184696791468346e-07,0.0,0.0,0.0,1.2184696791468346e-07,0.1279682070016861,-0.039414212107657186,9.809148788452148,8.999999999999999e-08,0.0,0.0,0.0,8.999999999999999e-08,0.0,0.0,0.0,8.999999999999999e-08
1758875274433599184,35574,1758875274424146624,base_link,0.0011570645115230975,0.006245331372237102,-0.019253144015109885,-0.9997945169992384,1.0,0.0,0.0,0.0,1.0,0.0,0.0,0.0,1.0,-0.001328076934441924,0.0012474709656089546,0.0019996855407953262,1.2184696791468346e-07,0.0,0.0,0.0,1.2184696791468346e-07,0.0,0.0,0.0,1.2184696791468346e-07,0.12946350872516632,-0.03796013817191004,9.788041114807129,8.999999999999999e-08,0.0,0.0,0.0,8.999999999999999e-08,0.0,0.0,0.0,8.999999999999999e-08
1758875274440504400,35575,1758875274435146624,base_link,0.001160942515494481,0.006243120144415424,-0.019249983001471613,-0.9997945591460868,1.0,0.0,0.0,0.0,1.0,0.0,0.0,0.0,1.0,-0.0006693943869322538,0.0005948427133262157,0.0001442249631509184,1.2184696791468346e-07,0.0,0.0,0.0,1.2184696791468346e-07,0.0,0.0,0.0,1.2184696791468346e-07,0.10265779495239258,0.012163424864412556,9.8234281539917,8.999999999999999e-08,0.0,0.0,0.0,8.999999999999999e-08,0.0,0.0,0.0,8.999999999999999e-08
1758875274445744656,35576,1758875274439146624,base_link,0.0011641846947434069,0.006228894101317854,-0.019245431141832418,-0.9997947277334809,1.0,0.0,0.0,0.0,1.0,0.0,0.0,0.0,1.0,-0.00033981516025960445,0.0020131776109337807,-0.00019355781842023159,1.2184696791468346e-07,0.0,0.0,0.0,1.2184696791468346e-07,0.0,0.0,0.0,1.2184696791468346e-07,0.09663553535938263,-0.05715684965252756,9.807222366333008,8.999999999999999e-08,0.0,0.0,0.0,8.999999999999999e-08,0.0,0.0,0.0,8.999999999999999e-08
1758875274456779728,35577,1758875274450146624,base_link,0.001142371560369368,0.006226987779603371,-0.01924926650504698,-0.9997946855866323,1.0,0.0,0.0,0.0,1.0,0.0,0.0,0.0,1.0,0.0033800445962697268,0.0011064973659813406,0.0012575399596244095,1.2184696791468346e-07,0.0,0.0,0.0,1.2184696791468346e-07,0.0,0.0,0.0,1.2184696791468346e-07,0.15728868544101715,-0.0186925008893001,9.796886444091797,8.999999999999999e-08,0.0,0.0,0.0,8.999999999999999e-08,0.0,0.0,0.0,8.999999999999999e-08
1758875274460549264,35578,1758875274454144320,base_link,0.0011337177916260946,0.006227376156226954,-0.019227940199700387,-0.9997951070551175,1.0,0.0,0.0,0.0,1.0,0.0,0.0,0.0,1.0,0.0064994413405656815,-0.0008831196464598182,-0.002464145887643099,1.2184696791468346e-07,0.0,0.0,0.0,1.2184696791468346e-07,0.0,0.0,0.0,1.2184696791468346e-07,0.11751049011945724,-0.008706666529177419,9.807364463806152,8.999999999999999e-08,0.0,0.0,0.0,8.999999999999999e-08,0.0,0.0,0.0,8.999999999999999e-08
1758875274474519856,35579,1758875274465144320,base_link,0.0011344030071866501,0.006238929331802748,-0.019246105491408653,-0.9997946434397839,1.0,0.0,0.0,0.0,1.0,0.0,0.0,0.0,1.0,-0.0009546943474560976,-0.0004549073055386542,0.0008038475643843413,1.2184696791468346e-07,0.0,0.0,0.0,1.2184696791468346e-07,0.0,0.0,0.0,1.2184696791468346e-07,0.09924353659152985,-0.061304476112126104,9.795936584472656,8.999999999999999e-08,0.0,0.0,0.0,8.999999999999999e-08,0.0,0.0,0.0,8.999999999999999e-08
1758875274481678288,35580,1758875274478144320,base_link,0.0011471665875681175,0.006231932625677686,-0.019236243128857064,-0.9997948963208749,1.0,0.0,0.0,0.0,1.0,0.0,0.0,0.0,1.0,-0.0026033876929432154,-0.0003743013367056846,0.0004184841527603567,1.2184696791468346e-07,0.0,0.0,0.0,1.2184696791468346e-07,0.0,0.0,0.0,1.2184696791468346e-07,0.09320583194494247,-0.03511039167642473,9.780420303344727,8.999999999999999e-08,0.0,0.0,0.0,8.999999999999999e-08,0.0,0.0,0.0,8.999999999999999e-08
1758875274486425232,35581,1758875274480144320,base_link,0.0011584397170918926,0.006234945960710087,-0.01924631622565115,-0.9997946855866324,1.0,0.0,0.0,0.0,1.0,0.0,0.0,0.0,1.0,-0.0031228086445480585,-0.00032760645262897004,0.0010802594479173422,1.2184696791468346e-07,0.0,0.0,0.0,1.2184696791468346e-07,0.0,0.0,0.0,1.2184696791468346e-07,0.11729344725608826,0.019117344170809993,9.806563377380371,8.999999999999999e-08,0.0,0.0,0.0,8.999999999999999e-08,0.0,0.0,0.0,8.999999999999999e-08
1758875274490693008,35582,1758875274484144320,base_link,0.0011591440304431799,0.006239034534287899,-0.019231606975520846,-0.999794980614572,1.0,0.0,0.0,0.0,1.0,0.0,0.0,0.0,1.0,-9.839003905653954e-05,-0.0005246889777481557,-0.0005970466881990432,1.2184696791468346e-07,0.0,0.0,0.0,1.2184696791468346e-07,0.0,0.0,0.0,1.2184696791468346e-07,0.1161944717168808,0.006123661529273996,9.810850143432617,8.999999999999999e-08,0.0,0.0,0.0,8.999999999999999e-08,0.0,0.0,0.0,8.999999999999999e-08
1758875274501772752,35583,1758875274495144320,base_link,0.0011513070215259317,0.006242651589997993,-0.01923620098200861,-0.9997948541740264,1.0,0.0,0.0,0.0,1.0,0.0,0.0,0.0,1.0,0.0001740376465022564,-0.0008603329770267006,0.0024358523078262806,1.2184696791468346e-07,0.0,0.0,0.0,1.2184696791468346e-07,0.0,0.0,0.0,1.2184696791468346e-07,0.1005842536687851,0.014549525454641589,9.797830581665039,8.999999999999999e-08,0.0,0.0,0.0,8.999999999999999e-08,0.0,0.0,0.0,8.999999999999999e-08
1758875274518372112,35584,1758875274499144320,base_link,0.0011497846312596028,0.006244058734975425,-0.019243829561589054,-0.9997947277334809,1.0,0.0,0.0,0.0,1.0,0.0,0.0,0.0,1.0,-0.0012081542517989874,0.0007113206665962939,0.0033574411645531654,1.2184696791468346e-07,0.0,0.0,0.0,1.2184696791468346e-07,0.0,0.0,0.0,1.2184696791468346e-07,0.11125850677490234,-0.009037360548971883,9.798462867736816,8.999999999999999e-08,0.0,0.0,0.0,8.999999999999999e-08,0.0,0.0,0.0,8.999999999999999e-08
1758875274518379632,35585,1758875274510144320,base_link,0.0011422926996645373,0.006247587545721451,-0.01926216344069131,-0.9997943484118442,1.0,0.0,0.0,0.0,1.0,0.0,0.0,0.0,1.0,0.001210586167871952,0.0009422618895769119,-0.00034391973167657863,1.2184696791468346e-07,0.0,0.0,0.0,1.2184696791468346e-07,0.0,0.0,0.0,1.2184696791468346e-07,0.14438846707344055,-0.016449516639112226,9.797057151794434,8.999999999999999e-08,0.0,0.0,0.0,8.999999999999999e-08,0.0,0.0,0.0,8.999999999999999e-08
1758875274524248208,35586,1758875274514144320,base_link,0.0011544576630882477,0.006241183529653574,-0.019252427518685198,-0.9997945591460868,1.0,0.0,0.0,0.0,1.0,0.0,0.0,0.0,1.0,-0.0016300312709063292,0.0008486879523843524,-0.002559489104896784,1.2184696791468346e-07,0.0,0.0,0.0,1.2184696791468346e-07,0.0,0.0,0.0,1.2184696791468346e-07,0.14822562038898468,-0.0561392568051803,9.815078735351562,8.999999999999999e-08,0.0,0.0,0.0,8.999999999999999e-08,0.0,0.0,0.0,8.999999999999999e-08
1758875274542522768,35587,1758875274538144320,base_link,0.001145879626963392,0.006213950573978837,-0.019249645826683582,-0.9997948120271779,1.0,0.0,0.0,0.0,1.0,0.0,0.0,0.0,1.0,0.0010044733062386513,-0.00041835149750113455,0.0024728612042963505,1.2184696791468346e-07,0.0,0.0,0.0,1.2184696791468346e-07,0.0,0.0,0.0,1.2184696791468346e-07,0.11392805725336075,0.004713722970337875,9.796812057495117,8.999999999999999e-08,0.0,0.0,0.0,8.999999999999999e-08,0.0,0.0,0.0,8.999999999999999e-08
1758875274550283792,35588,1758875274540144320,base_link,0.0011500261524579054,0.006228764203413654,-0.019269665579726165,-0.9997942641181473,1.0,0.0,0.0,0.0,1.0,0.0,0.0,0.0,1.0,0.0002867034636437893,-0.0015956237912178033,0.0049269371666014194,1.2184696791468346e-07,0.0,0.0,0.0,1.2184696791468346e-07,0.0,0.0,0.0,1.2184696791468346e-07,0.11537925153970718,-0.053885973989962324,9.839701652526855,8.999999999999999e-08,0.0,0.0,0.0,8.999999999999999e-08,0.0,0.0,0.0,8.999999999999999e-08
1758875274553610736,35589,1758875274549144320,base_link,0.0011323634948454278,0.00623229186170679,-0.019267347503058113,-0.9997943062649959,1.0,0.0,0.0,0.0,1.0,0.0,0.0,0.0,1.0,0.0022217738442122936,-0.0019260281696915627,0.000362333841621876,1.2184696791468346e-07,0.0,0.0,0.0,1.2184696791468346e-07,0.0,0.0,0.0,1.2184696791468346e-07,0.14690379798412323,-0.03028747253119825,9.820622444152832,8.999999999999999e-08,0.0,0.0,0.0,8.999999999999999e-08,0.0,0.0,0.0,8.999999999999999e-08
1758875274569129264,35590,1758875274559142784,base_link,0.0011368557562066318,0.006233201640944568,-0.019279696529671854,-0.9997940955307533,1.0,0.0,0.0,0.0,1.0,0.0,0.0,0.0,1.0,-0.0010106919799000025,0.00023476919159293196,0.0017587192123755813,1.2184696791468346e-07,0.0,0.0,0.0,1.2184696791468346e-07,0.0,0.0,0.0,1.2184696791468346e-07,0.11350197345018387,-0.006568300537763826,9.80506706237793,8.999999999999999e-08,0.0,0.0,0.0,8.999999999999999e-08,0.0,0.0,0.0,8.999999999999999e-08
1758875274574615248,35591,1758875274567142784,base_link,0.0011422418271012957,0.006232558407596397,-0.01928673505337309,-0.9997939690902077,1.0,0.0,0.0,0.0,1.0,0.0,0.0,0.0,1.0,-0.00015508360229432583,-0.0006045782938599588,-0.0009852423099800944,1.2184696791468346e-07,0.0,0.0,0.0,1.2184696791468346e-07,0.0,0.0,0.0,1.2184696791468346e-07,0.0819474309682846,-0.022785741835831395,9.812911987304688,8.999999999999999e-08,0.0,0.0,0.0,8.999999999999999e-08,0.0,0.0,0.0,8.999999999999999e-08
1758875274582807568,35592,1758875274573142784,base_link,0.0011470327383968698,0.0062322317695204365,-0.019272320831182417,-0.9997942219712987,1.0,0.0,0.0,0.0,1.0,0.0,0.0,0.0,1.0,0.004634050652384758,0.0007517398335039619,0.002433566376566887,1.2184696791468346e-07,0.0,0.0,0.0,1.2184696791468346e-07,0.0,0.0,0.0,1.2184696791468346e-07,0.12410731613636017,-0.020766030997036684,9.826050758361816,8.999999999999999e-08,0.0,0.0,0.0,8.999999999999999e-08,0.0,0.0,0.0,8.999999999999999e-08
1758875274591654480,35593,1758875274586142784,base_link,0.0011141560562887213,0.006243334336016645,-0.01928892668949572,-0.9997938847965107,1.0,0.0,0.0,0.0,1.0,0.0,0.0,0.0,1.0,0.001085266238078475,0.001008755061775446,0.00046676426427438844,1.2184696791468346e-07,0.0,0.0,0.0,1.2184696791468346e-07,0.0,0.0,0.0,1.2184696791468346e-07,0.11485698819160461,-0.027103260159491292,9.81052017211914,8.999999999999999e-08,0.0,0.0,0.0,8.999999999999999e-08,0.0,0.0,0.0,8.999999999999999e-08
1758875274600622960,35594,1758875274597142784,base_link,0.001120194909426923,0.006239489753179042,-0.019276366928639425,-0.9997941376776017,1.0,0.0,0.0,0.0,1.0,0.0,0.0,0.0,1.0,0.0003842886071652174,-0.0006158710457384587,-0.0006851406069472431,1.2184696791468346e-07,0.0,0.0,0.0,1.2184696791468346e-07,0.0,0.0,0.0,1.2184696791468346e-07,0.14040234684944153,-0.029023105278609983,9.800671577453613,8.999999999999999e-08,0.0,0.0,0.0,8.999999999999999e-08,0.0,0.0,0.0,8.999999999999999e-08
1758875274607813168,35595,1758875274601142784,base_link,0.0011338890131981697,0.006241432130205337,-0.019271899362697253,-0.9997942219712987,1.0,0.0,0.0,0.0,1.0,0.0,0.0,0.0,1.0,-0.0030554619152098894,-0.00021601282060146397,-0.005208463408052921,1.2184696791468346e-07,0.0,0.0,0.0,1.2184696791468346e-07,0.0,0.0,0.0,1.2184696791468346e-07,0.14263665676116943,-0.0032525062561023148,9.804417610168457,8.999999999999999e-08,0.0,0.0,0.0,8.999999999999999e-08,0.0,0.0,0.0,8.999999999999999e-08
1758875274617566896,35596,1758875274612142784,base_link,0.0011338911534678206,0.006251223205313896,-0.019259634629780645,-0.9997943484118442,1.0,0.0,0.0,0.0,1.0,0.0,0.0,0.0,1.0,-0.0028365321923047304,-0.0017949617467820647,-0.002534825354814529,1.2184696791468346e-07,0.0,0.0,0.0,1.2184696791468346e-07,0.0,0.0,0.0,1.2184696791468346e-07,0.11391780525445938,-0.008119937032459968,9.79326057434082,8.999999999999999e-08,0.0,0.0,0.0,8.999999999999999e-08,0.0,0.0,0.0,8.999999999999999e-08
1758875274628783952,35597,1758875274616142784,base_link,0.0011391827232255887,0.00625359643508454,-0.019250278029411247,-0.9997945169992383,1.0,0.0,0.0,0.0,1.0,0.0,0.0,0.0,1.0,-0.0003004539757966995,-0.0009449487552046778,-0.0017167177284136412,1.2184696791468346e-07,0.0,0.0,0.0,1.2184696791468346e-07,0.0,0.0,0.0,1.2184696791468346e-07,0.07682190090417862,-0.01978102885186552,9.809676170349121,8.999999999999999e-08,0.0,0.0,0.0,8.999999999999999e-08,0.0,0.0,0.0,8.999999999999999e-08
1758875274631545072,35598,1758875274627142784,base_link,0.0011294461426750641,0.0062464077632354,-0.01924943509244097,-0.9997946012929354,1.0,0.0,0.0,0.0,1.0,0.0,0.0,0.0,1.0,0.0015274947509169579,0.0007935436442494392,2.586096525192251e-05,1.2184696791468346e-07,0.0,0.0,0.0,1.2184696791468346e-07,0.0,0.0,0.0,1.2184696791468346e-07,0.12150301039218903,0.01657143235206724,9.804187774658203,8.999999999999999e-08,0.0,0.0,0.0,8.999999999999999e-08,0.0,0.0,0.0,8.999999999999999e-08
1758875274635364592,35599,1758875274631142784,base_link,0.001139413049167256,0.006240997984738449,-0.019257442993658013,-0.9997944327055414,1.0,0.0,0.0,0.0,1.0,0.0,0.0,0.0,1.0,-0.0010614439379423857,0.001110963523387909,0.000664879276882857,1.2184696791468346e-07,0.0,0.0,0.0,1.2184696791468346e-07,0.0,0.0,0.0,1.2184696791468346e-07,0.12064114958047867,0.0061511914245796296,9.805935859680176,8.999999999999999e-08,0.0,0.0,0.0,8.999999999999999e-08,0.0,0.0,0.0,8.999999999999999e-08
1758875274645439344,35600,1758875274642142784,base_link,0.0011246825609765715,0.006240138090247151,-0.019247454190561005,-0.9997946434397839,1.0,0.0,0.0,0.0,1.0,0.0,0.0,0.0,1.0,0.0015546651557087898,0.0010148193687200544,-0.0013328586937859657,1.2184696791468346e-07,0.0,0.0,0.0,1.2184696791468346e-07,0.0,0.0,0.0,1.2184696791468346e-07,0.1183384582400322,0.012598879635335212,9.780603408813477,8.999999999999999e-08,0.0,0.0,0.0,8.999999999999999e-08,0.0,0.0,0.0,8.999999999999999e-08
1758875274652609424,35601,1758875274646142784,base_link,0.0011239868087038875,0.006245728145303162,-0.019252006050200145,-0.999794559146087,1.0,0.0,0.0,0.0,1.0,0.0,0.0,0.0,1.0,0.0031063503120094538,-0.001638264860957861,0.0001868575345724823,1.2184696791468346e-07,0.0,0.0,0.0,1.2184696791468346e-07,0.0,0.0,0.0,1.2184696791468346e-07,0.10881757736206055,-0.06512981653213382,9.80140495300293,8.999999999999999e-08,0.0,0.0,0.0,8.999999999999999e-08,0.0,0.0,0.0,8.999999999999999e-08
1758875274665744976,35602,1758875274657142784,base_link,0.0010978521406323394,0.006237123932034114,-0.01926283779026743,-0.9997944327055414,1.0,0.0,0.0,0.0,1.0,0.0,0.0,0.0,1.0,0.0004710857756435871,-0.00034410948865115615,0.0021654556039720774,1.2184696791468346e-07,0.0,0.0,0.0,1.2184696791468346e-07,0.0,0.0,0.0,1.2184696791468346e-07,0.13016076385974884,-0.02330905571579813,9.79847526550293,8.999999999999999e-08,0.0,0.0,0.0,8.999999999999999e-08,0.0,0.0,0.0,8.999999999999999e-08
1758875274672576560,35603,1758875274661142784,base_link,0.0011093088394377147,0.006239839769585034,-0.01927185721584874,-0.9997942641181473,1.0,0.0,0.0,0.0,1.0,0.0,0.0,0.0,1.0,-0.0009179150220006704,-0.0015970072709023952,-0.0003140423214063046,1.2184696791468346e-07,0.0,0.0,0.0,1.2184696791468346e-07,0.0,0.0,0.0,1.2184696791468346e-07,0.10400500893592834,-0.05313464254140734,9.829859733581543,8.999999999999999e-08,0.0,0.0,0.0,8.999999999999999e-08,0.0,0.0,0.0,8.999999999999999e-08
1758875274675549616,35604,1758875274671142784,base_link,0.0011074548720116165,0.006248561697684884,-0.019271393600515118,-0.9997942219712987,1.0,0.0,0.0,0.0,1.0,0.0,0.0,0.0,1.0,-0.0015137640293687582,-0.000874859280884266,-0.0008570678764954208,1.2184696791468346e-07,0.0,0.0,0.0,1.2184696791468346e-07,0.0,0.0,0.0,1.2184696791468346e-07,0.13135913014411926,-0.004218287765978564,9.82641315460205,8.999999999999999e-08,0.0,0.0,0.0,8.999999999999999e-08,0.0,0.0,0.0,8.999999999999999e-08
1758875274683464912,35605,1758875274676142784,base_link,0.0011106876670013035,0.006249235388716551,-0.01927560828536628,-0.9997941376776017,1.0,0.0,0.0,0.0,1.0,0.0,0.0,0.0,1.0,0.0007155120838433504,-0.0007238634862005708,0.0018699192441999912,1.2184696791468346e-07,0.0,0.0,0.0,1.2184696791468346e-07,0.0,0.0,0.0,1.2184696791468346e-07,0.14395272731781006,0.0016387836076331218,9.797962188720703,8.999999999999999e-08,0.0,0.0,0.0,8.999999999999999e-08,0.0,0.0,0.0,8.999999999999999e-08
1758875274692807728,35606,1758875274686142784,base_link,0.0011106041964849167,0.006247104174052592,-0.019270255635605322,-0.9997941798244503,1.0,0.0,0.0,0.0,1.0,0.0,0.0,0.0,1.0,-0.0010343797039240599,-0.000471414066851139,0.0003870195359922946,1.2184696791468346e-07,0.0,0.0,0.0,1.2184696791468346e-07,0.0,0.0,0.0,1.2184696791468346e-07,0.07598569989204407,-0.015508534386752832,9.828774452209473,8.999999999999999e-08,0.0,0.0,0.0,8.999999999999999e-08,0.0,0.0,0.0,8.999999999999999e-08
1758875274707822800,35607,1758875274701142784,base_link,0.001114640909682724,0.006239928837729739,-0.019282899690158638,-0.9997940112370562,1.0,0.0,0.0,0.0,1.0,0.0,0.0,0.0,1.0,-0.000609653303399682,0.0013555763289332394,0.002770285587757826,1.2184696791468346e-07,0.0,0.0,0.0,1.2184696791468346e-07,0.0,0.0,0.0,1.2184696791468346e-07,0.12485416233539581,-0.05165616422891497,9.815408706665039,8.999999999999999e-08,0.0,0.0,0.0,8.999999999999999e-08,0.0,0.0,0.0,8.999999999999999e-08
1758875274710784624,35608,1758875274706142784,base_link,0.001107477921069396,0.006237116852680653,-0.0193039309675656,-0.9997936319154196,1.0,0.0,0.0,0.0,1.0,0.0,0.0,0.0,1.0,0.0021668910048902035,0.0023801559582352643,0.004054478369653225,1.2184696791468346e-07,0.0,0.0,0.0,1.2184696791468346e-07,0.0,0.0,0.0,1.2184696791468346e-07,0.12172099947929382,0.00511696981266261,9.801700592041016,8.999999999999999e-08,0.0,0.0,0.0,8.999999999999999e-08,0.0,0.0,0.0,8.999999999999999e-08
1758875274716628240,35609,1758875274710142784,base_link,0.0011158516437606502,0.006237746750502538,-0.019293183521195335,-0.9997938426496621,1.0,0.0,0.0,0.0,1.0,0.0,0.0,0.0,1.0,-0.0007636889349669218,-0.0026765395887196064,-0.00036520976573228804,1.2184696791468346e-07,0.0,0.0,0.0,1.2184696791468346e-07,0.0,0.0,0.0,1.2184696791468346e-07,0.11141983419656754,-0.016781056299804444,9.776114463806152,8.999999999999999e-08,0.0,0.0,0.0,8.999999999999999e-08,0.0,0.0,0.0,8.999999999999999e-08
1758875274726624656,35610,1758875274721142784,base_link,0.0011170994209671503,0.006248235553517306,-0.019288842395798696,-0.9997938005028136,1.0,0.0,0.0,0.0,1.0,0.0,0.0,0.0,1.0,-0.0029150384943932295,-0.0006284108385443687,0.00030658137984573847,1.2184696791468346e-07,0.0,0.0,0.0,1.2184696791468346e-07,0.0,0.0,0.0,1.2184696791468346e-07,0.12708143889904022,-0.02191152051091074,9.812084197998047,8.999999999999999e-08,0.0,0.0,0.0,8.999999999999999e-08,0.0,0.0,0.0,8.999999999999999e-08
1758875274736022736,35611,1758875274728142784,base_link,0.0011202033058693996,0.006244648296946197,-0.019291876968891494,-0.9997938005028136,1.0,0.0,0.0,0.0,1.0,0.0,0.0,0.0,1.0,-0.0011611448135226965,-0.0018795276992022991,-0.00016742653679102638,1.2184696791468346e-07,0.0,0.0,0.0,1.2184696791468346e-07,0.0,0.0,0.0,1.2184696791468346e-07,0.1242055892944336,0.006499052513391982,9.81484317779541,8.999999999999999e-08,0.0,0.0,0.0,8.999999999999999e-08,0.0,0.0,0.0,8.999999999999999e-08
1758875274745599376,35612,1758875274734142784,base_link,0.0011306665902844832,0.006262892284723097,-0.01928606070379691,-0.9997938005028136,1.0,0.0,0.0,0.0,1.0,0.0,0.0,0.0,1.0,0.002144971862435341,-0.0008454248309135436,0.000847145391162485,1.2184696791468346e-07,0.0,0.0,0.0,1.2184696791468346e-07,0.0,0.0,0.0,1.2184696791468346e-07,0.12788289785385132,-0.0003515132702875041,9.813016891479492,8.999999999999999e-08,0.0,0.0,0.0,8.999999999999999e-08,0.0,0.0,0.0,8.999999999999999e-08
1758875274747622128,35613,1758875274743142784,base_link,0.0011249678753846547,0.0062638560646105295,-0.019293267814892302,-0.9997936740622682,1.0,0.0,0.0,0.0,1.0,0.0,0.0,0.0,1.0,0.0028835104312747717,0.0011863287072628736,0.0007939287461340426,1.2184696791468346e-07,0.0,0.0,0.0,1.2184696791468346e-07,0.0,0.0,0.0,1.2184696791468346e-07,0.09689895063638687,-0.025691248476504076,9.82029914855957,8.999999999999999e-08,0.0,0.0,0.0,8.999999999999999e-08,0.0,0.0,0.0,8.999999999999999e-08
1758875274762754160,35614,1758875274758141504,base_link,0.0011123587236903094,0.0062580858976315846,-0.01929626024113653,-0.9997936319154196,1.0,0.0,0.0,0.0,1.0,0.0,0.0,0.0,1.0,-0.0001046033576130867,-0.0020732204429805274,0.0018421320710331204,1.2184696791468346e-07,0.0,0.0,0.0,1.2184696791468346e-07,0.0,0.0,0.0,1.2184696791468346e-07,0.11170056462287903,-0.033445216715334646,9.795767784118652,8.999999999999999e-08,0.0,0.0,0.0,8.999999999999999e-08,0.0,0.0,0.0,8.999999999999999e-08
1758875274770494480,35615,1758875274763141504,base_link,0.0011111443676175897,0.006252008190367412,-0.019297145324955318,-0.9997936740622682,1.0,0.0,0.0,0.0,1.0,0.0,0.0,0.0,1.0,-0.0005653512198477983,-0.00040635420009493806,0.0017057519871741533,1.2184696791468346e-07,0.0,0.0,0.0,1.2184696791468346e-07,0.0,0.0,0.0,1.2184696791468346e-07,0.1050465777516365,-0.08084921538829683,9.810308456420898,8.999999999999999e-08,0.0,0.0,0.0,8.999999999999999e-08,0.0,0.0,0.0,8.999999999999999e-08
1758875274782838288,35616,1758875274778141504,base_link,0.0010977680115714446,0.0062635103287438385,-0.019311559547146046,-0.9997933368874801,1.0,0.0,0.0,0.0,1.0,0.0,0.0,0.0,1.0,0.0023267834912985563,-0.0015984200872480867,0.0016111111035570504,1.2184696791468346e-07,0.0,0.0,0.0,1.2184696791468346e-07,0.0,0.0,0.0,1.2184696791468346e-07,0.13973374664783478,-0.027559269219635717,9.804211616516113,8.999999999999999e-08,0.0,0.0,0.0,8.999999999999999e-08,0.0,0.0,0.0,8.999999999999999e-08
1758875274797072144,35617,1758875274793141504,base_link,0.0011001051860302753,0.0062576235993869805,-0.019304816051384278,-0.9997935054748741,1.0,0.0,0.0,0.0,1.0,0.0,0.0,0.0,1.0,-0.0006398202385753393,-0.0008687814697623254,-0.0006828400073572992,1.2184696791468346e-07,0.0,0.0,0.0,1.2184696791468346e-07,0.0,0.0,0.0,1.2184696791468346e-07,0.11596166342496872,-0.0663222000002849,9.804576873779297,8.999999999999999e-08,0.0,0.0,0.0,8.999999999999999e-08,0.0,0.0,0.0,8.999999999999999e-08
1758875274815496400,35618,1758875274808141504,base_link,0.0010937752562195453,0.006265705257588945,-0.01930144430350339,-0.9997935054748741,1.0,0.0,0.0,0.0,1.0,0.0,0.0,0.0,1.0,-0.000183414900675416,0.00017381692305207247,-0.00044885219540446997,1.2184696791468346e-07,0.0,0.0,0.0,1.2184696791468346e-07,0.0,0.0,0.0,1.2184696791468346e-07,0.13867369294166565,-0.00958152115344881,9.814085006713867,8.999999999999999e-08,0.0,0.0,0.0,8.999999999999999e-08,0.0,0.0,0.0,8.999999999999999e-08
1758875274824262192,35619,1758875274817141504,base_link,0.0010925432840812367,0.006262690276195273,-0.01930789277132564,-0.9997933790343285,1.0,0.0,0.0,0.0,1.0,0.0,0.0,0.0,1.0,-0.0023367826361209154,-0.0019104531966149807,-0.0006088840309530494,1.2184696791468346e-07,0.0,0.0,0.0,1.2184696791468346e-07,0.0,0.0,0.0,1.2184696791468346e-07,0.11196395754814148,-0.008405535481868972,9.80984115600586,8.999999999999999e-08,0.0,0.0,0.0,8.999999999999999e-08,0.0,0.0,0.0,8.999999999999999e-08
1758875274830143568,35620,1758875274823141504,base_link,0.0010819524066677316,0.0062561056542960805,-0.019313835476965587,-0.9997933368874801,1.0,0.0,0.0,0.0,1.0,0.0,0.0,0.0,1.0,0.0038587539456784725,0.001007371582090855,0.002838721964508295,1.2184696791468346e-07,0.0,0.0,0.0,1.2184696791468346e-07,0.0,0.0,0.0,1.2184696791468346e-07,0.12837760150432587,-0.055913589894770375,9.796998023986816,8.999999999999999e-08,0.0,0.0,0.0,8.999999999999999e-08,0.0,0.0,0.0,8.999999999999999e-08
1758875274843541200,35621,1758875274838141504,base_link,0.00107572010608031,0.006263508847018695,-0.019315437057209006,-0.999793252593783,1.0,0.0,0.0,0.0,1.0,0.0,0.0,0.0,1.0,-0.0003821540158241987,-3.629806451499455e-05,0.0006059461156837642,1.2184696791468346e-07,0.0,0.0,0.0,1.2184696791468346e-07,0.0,0.0,0.0,1.2184696791468346e-07,0.10565368086099625,-0.013942232355474229,9.78051471710205,8.999999999999999e-08,0.0,0.0,0.0,8.999999999999999e-08,0.0,0.0,0.0,8.999999999999999e-08
1758875274850777904,35622,1758875274847141504,base_link,0.0010689288658417382,0.006270401503111497,-0.0193207475601214,-0.999793168300086,1.0,0.0,0.0,0.0,1.0,0.0,0.0,0.0,1.0,2.822699025273323e-05,0.00034351507201790766,-0.003593968227505684,1.2184696791468346e-07,0.0,0.0,0.0,1.2184696791468346e-07,0.0,0.0,0.0,1.2184696791468346e-07,0.1196821853518486,-0.011628311127423041,9.788893699645996,8.999999999999999e-08,0.0,0.0,0.0,8.999999999999999e-08,0.0,0.0,0.0,8.999999999999999e-08
1758875274866152464,35623,1758875274853140480,base_link,0.0010822303124501,0.006268427022040437,-0.01930119142241238,-0.999793505474874,1.0,0.0,0.0,0.0,1.0,0.0,0.0,0.0,1.0,-0.005206448026001453,-0.0015168525278568268,0.00044173211790621297,1.2184696791468346e-07,0.0,0.0,0.0,1.2184696791468346e-07,0.0,0.0,0.0,1.2184696791468346e-07,0.1617557406425476,-0.01930776797234892,9.803847312927246,8.999999999999999e-08,0.0,0.0,0.0,8.999999999999999e-08,0.0,0.0,0.0,8.999999999999999e-08
1758875274875338256,35624,1758875274868140480,base_link,0.001092799622530969,0.006267583097253457,-0.019306501925324775,-0.999793421181177,1.0,0.0,0.0,0.0,1.0,0.0,0.0,0.0,1.0,0.0011308938264846802,0.0009672373998910189,0.00039687234675511707,1.2184696791468346e-07,0.0,0.0,0.0,1.2184696791468346e-07,0.0,0.0,0.0,1.2184696791468346e-07,0.12126831710338593,-0.05192146822810053,9.802690505981445,8.999999999999999e-08,0.0,0.0,0.0,8.999999999999999e-08,0.0,0.0,0.0,8.999999999999999e-08
1758875274896597776,35625,1758875274893140480,base_link,0.0010821507932007614,0.006256453859704677,-0.0193046896108388,-0.9997935476217226,1.0,0.0,0.0,0.0,1.0,0.0,0.0,0.0,1.0,0.003226964268833399,0.00032061571255326276,0.0003583842772059142,1.2184696791468346e-07,0.0,0.0,0.0,1.2184696791468346e-07,0.0,0.0,0.0,1.2184696791468346e-07,0.12006604671478271,-0.03498943895101428,9.766027450561523,8.999999999999999e-08,0.0,0.0,0.0,8.999999999999999e-08,0.0,0.0,0.0,8.999999999999999e-08
1758875274905589040,35626,1758875274898140480,base_link,0.0010848075263820906,0.006262123104737773,-0.019298156849319528,-0.9997935897685711,1.0,0.0,0.0,0.0,1.0,0.0,0.0,0.0,1.0,0.0017355486052110791,0.0016221266705542803,-0.0007119649089872839,1.2184696791468346e-07,0.0,0.0,0.0,1.2184696791468346e-07,0.0,0.0,0.0,1.2184696791468346e-07,0.1424502432346344,-0.03082012571394323,9.8184175491333,8.999999999999999e-08,0.0,0.0,0.0,8.999999999999999e-08,0.0,0.0,0.0,8.999999999999999e-08
1758875274923566192,35627,1758875274917140480,base_link,0.0010417266971227501,0.0062483629818796006,-0.019299631989017473,-0.9997937162091167,1.0,0.0,0.0,0.0,1.0,0.0,0.0,0.0,1.0,0.0030778965447098017,0.00210585119202733,-0.0020381589420139794,1.2184696791468346e-07,0.0,0.0,0.0,1.2184696791468346e-07,0.0,0.0,0.0,1.2184696791468346e-07,0.10680197179317474,-0.017739547416566602,9.792585372924805,8.999999999999999e-08,0.0,0.0,0.0,8.999999999999999e-08,0.0,0.0,0.0,8.999999999999999e-08
1758875274937510640,35628,1758875274926140480,base_link,0.0010399983470615497,0.00624430075008211,-0.019291371206709304,-0.9997938847965107,1.0,0.0,0.0,0.0,1.0,0.0,0.0,0.0,1.0,0.0006873500533401966,0.0004488271661102771,-0.00023695733398199087,1.2184696791468346e-07,0.0,0.0,0.0,1.2184696791468346e-07,0.0,0.0,0.0,1.2184696791468346e-07,0.12752781808376312,-0.02208765596151232,9.801111221313477,8.999999999999999e-08,0.0,0.0,0.0,8.999999999999999e-08,0.0,0.0,0.0,8.999999999999999e-08
1758875274942866224,35629,1758875274937140480,base_link,0.0010239776055436,0.006241846025428603,-0.019300980688169826,-0.9997937162091166,1.0,0.0,0.0,0.0,1.0,0.0,0.0,0.0,1.0,-0.0005988483317196369,-0.001058631110936403,0.0018410484772175553,1.2184696791468346e-07,0.0,0.0,0.0,1.2184696791468346e-07,0.0,0.0,0.0,1.2184696791468346e-07,0.118418850004673,-0.032632019370793096,9.811612129211426,8.999999999999999e-08,0.0,0.0,0.0,8.999999999999999e-08,0.0,0.0,0.0,8.999999999999999e-08
1758875274951598512,35630,1758875274944140480,base_link,0.001034843260653061,0.0062457080596956685,-0.01929470080774162,-0.9997938426496622,1.0,0.0,0.0,0.0,1.0,0.0,0.0,0.0,1.0,0.00013798591680824757,-0.0014681131578981874,0.0011482840636745097,1.2184696791468346e-07,0.0,0.0,0.0,1.2184696791468346e-07,0.0,0.0,0.0,1.2184696791468346e-07,0.1359950453042984,-0.02563931979238867,9.813770294189453,8.999999999999999e-08,0.0,0.0,0.0,8.999999999999999e-08,0.0,0.0,0.0,8.999999999999999e-08
1758875274962635568,35631,1758875274955139712,base_link,0.0010233564334364452,0.006258367754681001,-0.019322433434061898,-0.999793252593783,1.0,0.0,0.0,0.0,1.0,0.0,0.0,0.0,1.0,0.0017511690966784954,0.0002457024529576306,0.0034134299494326115,1.2184696791468346e-07,0.0,0.0,0.0,1.2184696791468346e-07,0.0,0.0,0.0,1.2184696791468346e-07,0.11743862181901932,0.0036671222187590656,9.780502319335938,8.999999999999999e-08,0.0,0.0,0.0,8.999999999999999e-08,0.0,0.0,0.0,8.999999999999999e-08
1758875274971508848,35632,1758875274965139712,base_link,0.0010183454036390776,0.006249409079830531,-0.01929562803840892,-0.9997938426496622,1.0,0.0,0.0,0.0,1.0,0.0,0.0,0.0,1.0,0.0012807107996195555,-0.00015565333887934723,-0.003108117263764143,1.2184696791468346e-07,0.0,0.0,0.0,1.2184696791468346e-07,0.0,0.0,0.0,1.2184696791468346e-07,0.1164136454463005,-0.0054783467203366664,9.810613632202148,8.999999999999999e-08,0.0,0.0,0.0,8.999999999999999e-08,0.0,0.0,0.0,8.999999999999999e-08
1758875274978886448,35633,1758875274969139712,base_link,0.0010133347031139645,0.00624326996329099,-0.019303214471140858,-0.9997937583559652,1.0,0.0,0.0,0.0,1.0,0.0,0.0,0.0,1.0,0.002384480554610491,0.0011311650741845367,-0.0011892347829416396,1.2184696791468346e-07,0.0,0.0,0.0,1.2184696791468346e-07,0.0,0.0,0.0,1.2184696791468346e-07,0.12211661785840988,-0.0013640564866352022,9.7831392288208,8.999999999999999e-08,0.0,0.0,0.0,8.999999999999999e-08,0.0,0.0,0.0,8.999999999999999e-08
1758875274985407344,35634,1758875274980139712,base_link,0.0010247637430500043,0.006249061203694189,-0.01930064351338174,-0.9997937162091166,1.0,0.0,0.0,0.0,1.0,0.0,0.0,0.0,1.0,-0.002150790998712182,-0.0008600060828030109,-0.00012111489195376624,1.2184696791468346e-07,0.0,0.0,0.0,1.2184696791468346e-07,0.0,0.0,0.0,1.2184696791468346e-07,0.08923955261707306,-0.005652806721626513,9.79367733001709,8.999999999999999e-08,0.0,0.0,0.0,8.999999999999999e-08,0.0,0.0,0.0,8.999999999999999e-08
1758875274990599664,35635,1758875274984139712,base_link,0.0010240169535779516,0.006246010825533214,-0.019298957639441294,-0.9997937162091167,1.0,0.0,0.0,0.0,1.0,0.0,0.0,0.0,1.0,-0.0007259577978402376,-0.0002023642882704734,0.0005641778116114438,1.2184696791468346e-07,0.0,0.0,0.0,1.2184696791468346e-07,0.0,0.0,0.0,1.2184696791468346e-07,0.10909359902143478,-0.038408659398554555,9.81855583190918,8.999999999999999e-08,0.0,0.0,0.0,8.999999999999999e-08,0.0,0.0,0.0,8.999999999999999e-08
1758875275002154896,35636,1758875274995139712,base_link,0.0010104693759597314,0.006239056595528916,-0.019301402156654938,-0.9997938005028136,1.0,0.0,0.0,0.0,1.0,0.0,0.0,0.0,1.0,0.0036083979066461325,0.001770164119079709,0.0007979093934409318,1.2184696791468346e-07,0.0,0.0,0.0,1.2184696791468346e-07,0.0,0.0,0.0,1.2184696791468346e-07,0.1148771420121193,-0.004472725559024801,9.819531440734863,8.999999999999999e-08,0.0,0.0,0.0,8.999999999999999e-08,0.0,0.0,0.0,8.999999999999999e-08
1758875275011468176,35637,1758875274999139712,base_link,0.0009980317751097157,0.006235535028772478,-0.019299631989017418,-0.9997938005028136,1.0,0.0,0.0,0.0,1.0,0.0,0.0,0.0,1.0,0.0018357670633122325,-0.0029351687990128994,-0.001474184799008071,1.2184696791468346e-07,0.0,0.0,0.0,1.2184696791468346e-07,0.0,0.0,0.0,1.2184696791468346e-07,0.1030062586069107,-0.028601430356501336,9.788007736206055,8.999999999999999e-08,0.0,0.0,0.0,8.999999999999999e-08,0.0,0.0,0.0,8.999999999999999e-08
1758875275021559888,35638,1758875275014139712,base_link,0.0009911358262943745,0.00626602992003138,-0.01931155954714599,-0.9997934211811771,1.0,0.0,0.0,0.0,1.0,0.0,0.0,0.0,1.0,0.0014796660980209708,-0.0026408424600958824,0.0012843245640397074,1.2184696791468346e-07,0.0,0.0,0.0,1.2184696791468346e-07,0.0,0.0,0.0,1.2184696791468346e-07,0.10753714293241501,-0.008778117597101917,9.817699432373047,8.999999999999999e-08,0.0,0.0,0.0,8.999999999999999e-08,0.0,0.0,0.0,8.999999999999999e-08
1758875275027734800,35639,1758875275023139712,base_link,0.0009925903864763815,0.00626517068408459,-0.019298915492592727,-0.9997936740622682,1.0,0.0,0.0,0.0,1.0,0.0,0.0,0.0,1.0,-0.0013892643619328737,-0.0017764326184988024,-0.0010732318041846154,1.2184696791468346e-07,0.0,0.0,0.0,1.2184696791468346e-07,0.0,0.0,0.0,1.2184696791468346e-07,0.11127997189760208,-0.06611030548810838,9.804583549499512,8.999999999999999e-08,0.0,0.0,0.0,8.999999999999999e-08,0.0,0.0,0.0,8.999999999999999e-08
1758875275052261552,35640,1758875275044139712,base_link,0.000986180114235678,0.006267975425144088,-0.019290823297678717,-0.9997938426496621,1.0,0.0,0.0,0.0,1.0,0.0,0.0,0.0,1.0,0.0010477686300873756,0.0006260774098336693,-0.0023344545625150204,1.2184696791468346e-07,0.0,0.0,0.0,1.2184696791468346e-07,0.0,0.0,0.0,1.2184696791468346e-07,0.10235826671123505,-0.020990606397389165,9.79488754272461,8.999999999999999e-08,0.0,0.0,0.0,8.999999999999999e-08,0.0,0.0,0.0,8.999999999999999e-08
1758875275064689872,35641,1758875275058139200,base_link,0.0009924418846898315,0.0062756589931909764,-0.019303467352231922,-0.9997935054748741,1.0,0.0,0.0,0.0,1.0,0.0,0.0,0.0,1.0,-5.605863407254219e-06,-2.7999049052595726e-05,0.002997499890625477,1.2184696791468346e-07,0.0,0.0,0.0,1.2184696791468346e-07,0.0,0.0,0.0,1.2184696791468346e-07,0.12442439794540405,-0.013660596683620204,9.813129425048828,8.999999999999999e-08,0.0,0.0,0.0,8.999999999999999e-08,0.0,0.0,0.0,8.999999999999999e-08
1758875275075633296,35642,1758875275068139200,base_link,0.0010011715506876503,0.006286845030203571,-0.019325046538669472,-0.999792999712692,1.0,0.0,0.0,0.0,1.0,0.0,0.0,0.0,1.0,-0.0007679520640522242,-0.003593951929360628,0.001075500040315092,1.2184696791468346e-07,0.0,0.0,0.0,1.2184696791468346e-07,0.0,0.0,0.0,1.2184696791468346e-07,0.13468438386917114,-0.04651077464222789,9.744467735290527,8.999999999999999e-08,0.0,0.0,0.0,8.999999999999999e-08,0.0,0.0,0.0,8.999999999999999e-08
1758875275081535824,35643,1758875275073139200,base_link,0.0009929041829344354,0.006295456816734461,-0.019307892771325583,-0.9997932947406316,1.0,0.0,0.0,0.0,1.0,0.0,0.0,0.0,1.0,-0.0012502435129135847,-0.0019669365137815475,-0.00020222761668264841,1.2184696791468346e-07,0.0,0.0,0.0,1.2184696791468346e-07,0.0,0.0,0.0,1.2184696791468346e-07,0.1152612566947937,0.021453220397235163,9.797310829162598,8.999999999999999e-08,0.0,0.0,0.0,8.999999999999999e-08,0.0,0.0,0.0,8.999999999999999e-08
1758875275088666640,35644,1758875275083139200,base_link,0.0010037790576670079,0.006299061360098905,-0.019318682364544357,-0.9997930418595404,1.0,0.0,0.0,0.0,1.0,0.0,0.0,0.0,1.0,-0.00021244725212454796,-0.001318233087658882,0.0024940764997154474,1.2184696791468346e-07,0.0,0.0,0.0,1.2184696791468346e-07,0.0,0.0,0.0,1.2184696791468346e-07,0.11301268637180328,-0.02833438292145609,9.789308547973633,8.999999999999999e-08,0.0,0.0,0.0,8.999999999999999e-08,0.0,0.0,0.0,8.999999999999999e-08
1758875275097924624,35645,1758875275088139200,base_link,0.0010024265718837383,0.006288542922581277,-0.019322602021455942,-0.999793084006389,1.0,0.0,0.0,0.0,1.0,0.0,0.0,0.0,1.0,-0.0013745336327701807,0.0012718990910798313,0.001678694738075137,1.2184696791468346e-07,0.0,0.0,0.0,1.2184696791468346e-07,0.0,0.0,0.0,1.2184696791468346e-07,0.09852880239486694,-0.05444086715578913,9.776212692260742,8.999999999999999e-08,0.0,0.0,0.0,8.999999999999999e-08,0.0,0.0,0.0,8.999999999999999e-08
1758875275103459216,35646,1758875275099139200,base_link,0.0010015105364731343,0.006273688134114711,-0.019320199651090757,-0.9997932104469345,1.0,0.0,0.0,0.0,1.0,0.0,0.0,0.0,1.0,-1.2798933312296867e-05,0.001597969909198582,-0.0022911708801984787,1.2184696791468346e-07,0.0,0.0,0.0,1.2184696791468346e-07,0.0,0.0,0.0,1.2184696791468346e-07,0.12065824121236801,-0.019107557833193532,9.816018104553223,8.999999999999999e-08,0.0,0.0,0.0,8.999999999999999e-08,0.0,0.0,0.0,8.999999999999999e-08
1758875275112494000,35647,1758875275103139200,base_link,0.0009964874882384962,0.006269733245072021,-0.019325425860306073,-0.9997931261532375,1.0,0.0,0.0,0.0,1.0,0.0,0.0,0.0,1.0,0.001826847204938531,0.0007140235975384715,0.0023548107128590345,1.2184696791468346e-07,0.0,0.0,0.0,1.2184696791468346e-07,0.0,0.0,0.0,1.2184696791468346e-07,0.09954674541950226,-0.002774045569820989,9.823745727539062,8.999999999999999e-08,0.0,0.0,0.0,8.999999999999999e-08,0.0,0.0,0.0,8.999999999999999e-08
1758875275121557872,35648,1758875275118139200,base_link,0.0009813457390025766,0.006271475589204016,-0.01933309658673514,-0.9997929575658434,1.0,0.0,0.0,0.0,1.0,0.0,0.0,0.0,1.0,0.0013714857632294297,0.0008090864866971971,0.0004433499998413025,1.2184696791468346e-07,0.0,0.0,0.0,1.2184696791468346e-07,0.0,0.0,0.0,1.2184696791468346e-07,0.11746467649936676,-0.022775445133446447,9.789080619812012,8.999999999999999e-08,0.0,0.0,0.0,8.999999999999999e-08,0.0,0.0,0.0,8.999999999999999e-08
1758875275131077840,35649,1758875275128139200,base_link,0.0009832981588326181,0.0062683792775636085,-0.019353748542505392,-0.9997926203910553,1.0,0.0,0.0,0.0,1.0,0.0,0.0,0.0,1.0,0.00010758335702121258,0.0009114136919379238,0.0024312674067914486,1.2184696791468346e-07,0.0,0.0,0.0,1.2184696791468346e-07,0.0,0.0,0.0,1.2184696791468346e-07,0.11746467649936676,-0.022775445133446447,9.789080619812012,8.999999999999999e-08,0.0,0.0,0.0,8.999999999999999e-08,0.0,0.0,0.0,8.999999999999999e-08
1758875275137785360,35650,1758875275133139200,base_link,0.0009804573624613078,0.006253395908281859,-0.019346878606198145,-0.9997928311252979,1.0,0.0,0.0,0.0,1.0,0.0,0.0,0.0,1.0,-2.5299610570073128e-05,0.004044186789542437,0.0016724762972444292,1.2184696791468346e-07,0.0,0.0,0.0,1.2184696791468346e-07,0.0,0.0,0.0,1.2184696791468346e-07,0.11305613815784454,-0.04194102808833002,9.801436424255371,8.999999999999999e-08,0.0,0.0,0.0,8.999999999999999e-08,0.0,0.0,0.0,8.999999999999999e-08
1758875275163463280,35651,1758875275158137664,base_link,0.0010062265383309254,0.006278765347635131,-0.019352315549656014,-0.9997925360973583,1.0,0.0,0.0,0.0,1.0,0.0,0.0,0.0,1.0,-0.0019929164554923773,-0.003941403701901436,0.0022078049369156365,1.2184696791468346e-07,0.0,0.0,0.0,1.2184696791468346e-07,0.0,0.0,0.0,1.2184696791468346e-07,0.0930977463722229,-0.018706887960432756,9.820780754089355,8.999999999999999e-08,0.0,0.0,0.0,8.999999999999999e-08,0.0,0.0,0.0,8.999999999999999e-08
1758875275166688368,35652,1758875275163137664,base_link,0.0010046269337210356,0.006286244437612291,-0.019337311271586246,-0.9997927889784494,1.0,0.0,0.0,0.0,1.0,0.0,0.0,0.0,1.0,-0.002645941684022546,-0.00381810893304646,-0.0004695879761129613,1.2184696791468346e-07,0.0,0.0,0.0,1.2184696791468346e-07,0.0,0.0,0.0,1.2184696791468346e-07,0.11126463115215302,-0.05233598127961039,9.797796249389648,8.999999999999999e-08,0.0,0.0,0.0,8.999999999999999e-08,0.0,0.0,0.0,8.999999999999999e-08
1758875275174523120,35653,1758875275167137664,base_link,0.0010042110628642445,0.00626891187543444,-0.019342073865467883,-0.9997927468316009,1.0,0.0,0.0,0.0,1.0,0.0,0.0,0.0,1.0,0.002387830289080739,0.001997134648263454,-0.002221728209406138,1.2184696791468346e-07,0.0,0.0,0.0,1.2184696791468346e-07,0.0,0.0,0.0,1.2184696791468346e-07,0.12132184207439423,-0.029585765674709073,9.815718650817871,8.999999999999999e-08,0.0,0.0,0.0,8.999999999999999e-08,0.0,0.0,0.0,8.999999999999999e-08
1758875275181478320,35654,1758875275178137664,base_link,0.0010158801422734444,0.006265284283012216,-0.019339882229345365,-0.9997928311252979,1.0,0.0,0.0,0.0,1.0,0.0,0.0,0.0,1.0,-0.0021427173633128405,0.0002635424025356772,0.0018445076420903206,1.2184696791468346e-07,0.0,0.0,0.0,1.2184696791468346e-07,0.0,0.0,0.0,1.2184696791468346e-07,0.07433867454528809,-0.018593430519102803,9.793744087219238,8.999999999999999e-08,0.0,0.0,0.0,8.999999999999999e-08,0.0,0.0,0.0,8.999999999999999e-08
1758875275191405008,35655,1758875275185137664,base_link,0.0010073457347222424,0.00626966920161862,-0.01934519273225776,-0.9997927468316008,1.0,0.0,0.0,0.0,1.0,0.0,0.0,0.0,1.0,0.0022091586142778397,0.0013861064799129965,0.0012877845438197253,1.2184696791468346e-07,0.0,0.0,0.0,1.2184696791468346e-07,0.0,0.0,0.0,1.2184696791468346e-07,0.10751330107450485,-0.04076661542057871,9.809016227722168,8.999999999999999e-08,0.0,0.0,0.0,8.999999999999999e-08,0.0,0.0,0.0,8.999999999999999e-08
1758875275201489424,35656,1758875275191137664,base_link,0.0009868024387957213,0.006267744934566294,-0.01933663692201007,-0.9997929575658434,1.0,0.0,0.0,0.0,1.0,0.0,0.0,0.0,1.0,0.0011651203967630863,-0.0008698368910700081,0.0016196849755942822,1.2184696791468346e-07,0.0,0.0,0.0,1.2184696791468346e-07,0.0,0.0,0.0,1.2184696791468346e-07,0.11603791266679764,-0.04681374505162119,9.800646781921387,8.999999999999999e-08,0.0,0.0,0.0,8.999999999999999e-08,0.0,0.0,0.0,8.999999999999999e-08
1758875275213512848,35657,1758875275200137664,base_link,0.0009951827469320555,0.006283165742037472,-0.019340683019467075,-0.9997927046847525,1.0,0.0,0.0,0.0,1.0,0.0,0.0,0.0,1.0,-0.001089801313355565,-0.0015265883412212131,0.0010281451977789404,1.2184696791468346e-07,0.0,0.0,0.0,1.2184696791468346e-07,0.0,0.0,0.0,1.2184696791468346e-07,0.15980426967144012,-0.017357351258395902,9.81171703338623,8.999999999999999e-08,0.0,0.0,0.0,8.999999999999999e-08,0.0,0.0,0.0,8.999999999999999e-08
1758875275216788880,35658,1758875275210137664,base_link,0.0009867303281720973,0.006282100875568064,-0.019344349795287482,-0.9997926625379039,1.0,0.0,0.0,0.0,1.0,0.0,0.0,0.0,1.0,-0.0006989690009504557,-0.0003932302352041006,-0.00020496721845120186,1.2184696791468346e-07,0.0,0.0,0.0,1.2184696791468346e-07,0.0,0.0,0.0,1.2184696791468346e-07,0.11023986339569092,-0.025112997740505922,9.828572273254395,8.999999999999999e-08,0.0,0.0,0.0,8.999999999999999e-08,0.0,0.0,0.0,8.999999999999999e-08
1758875275222719440,35659,1758875275215137664,base_link,0.0010006346722775175,0.006273340422614496,-0.019349576004502853,-0.9997926625379039,1.0,0.0,0.0,0.0,1.0,0.0,0.0,0.0,1.0,-0.0022810741793364286,-0.0015246837865561247,-0.0007158992812037466,1.2184696791468346e-07,0.0,0.0,0.0,1.2184696791468346e-07,0.0,0.0,0.0,1.2184696791468346e-07,0.11798330396413803,-0.04615657404065012,9.813880920410156,8.999999999999999e-08,0.0,0.0,0.0,8.999999999999999e-08,0.0,0.0,0.0,8.999999999999999e-08
1758875275231484944,35660,1758875275220137664,base_link,0.0010165683212842863,0.006280460441198678,-0.019346625725107133,-0.9997926625379038,1.0,0.0,0.0,0.0,1.0,0.0,0.0,0.0,1.0,-0.0032766747754067183,-0.0005633819382637744,-0.0031272685155272484,1.2184696791468346e-07,0.0,0.0,0.0,1.2184696791468346e-07,0.0,0.0,0.0,1.2184696791468346e-07,0.09724698960781097,-0.005143865011631243,9.795870780944824,8.999999999999999e-08,0.0,0.0,0.0,8.999999999999999e-08,0.0,0.0,0.0,8.999999999999999e-08
1758875275235837424,35661,1758875275230137664,base_link,0.0010097783981347305,0.0062814011720283315,-0.019342874655589648,-0.9997927046847525,1.0,0.0,0.0,0.0,1.0,0.0,0.0,0.0,1.0,0.0017890592571347952,-0.0007011678535491228,-2.811325248330823e-05,1.2184696791468346e-07,0.0,0.0,0.0,1.2184696791468346e-07,0.0,0.0,0.0,1.2184696791468346e-07,0.10213865339756012,-0.051178526133297673,9.792402267456055,8.999999999999999e-08,0.0,0.0,0.0,8.999999999999999e-08,0.0,0.0,0.0,8.999999999999999e-08
1758875275241460432,35662,1758875275234137664,base_link,0.000999168752202748,0.006286332188667979,-0.019332970146189607,-0.9997929154189948,1.0,0.0,0.0,0.0,1.0,0.0,0.0,0.0,1.0,0.001639347174204886,-0.0007734892424196006,-0.0008866264251992105,1.2184696791468346e-07,0.0,0.0,0.0,1.2184696791468346e-07,0.0,0.0,0.0,1.2184696791468346e-07,0.11686969548463821,-0.07399148494005083,9.814920425415039,8.999999999999999e-08,0.0,0.0,0.0,8.999999999999999e-08,0.0,0.0,0.0,8.999999999999999e-08
1758875275251793488,35663,1758875275245137664,base_link,0.000994067831080041,0.006287819017530878,-0.01932293919624403,-0.999793084006389,1.0,0.0,0.0,0.0,1.0,0.0,0.0,0.0,1.0,0.001083215931430459,-0.0008049432653933766,-0.0017869939329102635,1.2184696791468346e-07,0.0,0.0,0.0,1.2184696791468346e-07,0.0,0.0,0.0,1.2184696791468346e-07,0.1222565621137619,-0.05266155675053476,9.831127166748047,8.999999999999999e-08,0.0,0.0,0.0,8.999999999999999e-08,0.0,0.0,0.0,8.999999999999999e-08
1758875275255523984,35664,1758875275249137664,base_link,0.0009865288135526545,0.006290447268662236,-0.01931446767969325,-0.9997932104469345,1.0,0.0,0.0,0.0,1.0,0.0,0.0,0.0,1.0,0.001701702130958438,0.0004883371293544767,-0.0013538094935938716,1.2184696791468346e-07,0.0,0.0,0.0,1.2184696791468346e-07,0.0,0.0,0.0,1.2184696791468346e-07,0.1373039186000824,-0.0043518007732915795,9.80512523651123,8.999999999999999e-08,0.0,0.0,0.0,8.999999999999999e-08,0.0,0.0,0.0,8.999999999999999e-08
1758875275265091344,35665,1758875275260137152,base_link,0.0009925250259339644,0.006280996331792049,-0.019326521678367358,-0.9997930418595404,1.0,0.0,0.0,0.0,1.0,0.0,0.0,0.0,1.0,-0.0006003854796290398,0.0013232701458036902,0.0009421533904969691,1.2184696791468346e-07,0.0,0.0,0.0,1.2184696791468346e-07,0.0,0.0,0.0,1.2184696791468346e-07,0.12768369913101196,-0.032490842044352285,9.785609245300293,8.999999999999999e-08,0.0,0.0,0.0,8.999999999999999e-08,0.0,0.0,0.0,8.999999999999999e-08
1758875275275531120,35666,1758875275264137152,base_link,0.000989753047463738,0.006276677761544826,-0.019326605972064436,-0.9997930418595405,1.0,0.0,0.0,0.0,1.0,0.0,0.0,0.0,1.0,0.00032257288694381714,0.00041820830665528763,-0.0007865902734920382,1.2184696791468346e-07,0.0,0.0,0.0,1.2184696791468346e-07,0.0,0.0,0.0,1.2184696791468346e-07,0.13640843331813812,-0.0073747755959618,9.807487487792969,8.999999999999999e-08,0.0,0.0,0.0,8.999999999999999e-08,0.0,0.0,0.0,8.999999999999999e-08
1758875275281656880,35667,1758875275275137152,base_link,0.0009933982559515492,0.006274571571572169,-0.019330272747884843,-0.999792999712692,1.0,0.0,0.0,0.0,1.0,0.0,0.0,0.0,1.0,0.00042365724220871925,0.0023211133666336536,0.0004675865056924519,1.2184696791468346e-07,0.0,0.0,0.0,1.2184696791468346e-07,0.0,0.0,0.0,1.2184696791468346e-07,0.13531118631362915,0.025591976940633067,9.813204765319824,8.999999999999999e-08,0.0,0.0,0.0,8.999999999999999e-08,0.0,0.0,0.0,8.999999999999999e-08
1758875275290895856,35668,1758875275280137152,base_link,0.00098913533271525,0.006265071573136139,-0.019317122931149504,-0.99979333688748,1.0,0.0,0.0,0.0,1.0,0.0,0.0,0.0,1.0,0.002585581736639142,0.0032562888227403164,-0.00045809336006641426,1.2184696791468346e-07,0.0,0.0,0.0,1.2184696791468346e-07,0.0,0.0,0.0,1.2184696791468346e-07,0.11417022347450256,-0.021340727806090108,9.80401611328125,8.999999999999999e-08,0.0,0.0,0.0,8.999999999999999e-08,0.0,0.0,0.0,8.999999999999999e-08
1758875275297563824,35669,1758875275290137152,base_link,0.0009707270380836092,0.006254010659580061,-0.01931691219690695,-0.9997933790343285,1.0,0.0,0.0,0.0,1.0,0.0,0.0,0.0,1.0,0.0034470048267394304,-0.0003379986155778173,-0.0024580820463597775,1.2184696791468346e-07,0.0,0.0,0.0,1.2184696791468346e-07,0.0,0.0,0.0,1.2184696791468346e-07,0.15013252198696136,0.01249698922038198,9.778480529785156,8.999999999999999e-08,0.0,0.0,0.0,8.999999999999999e-08,0.0,0.0,0.0,8.999999999999999e-08
1758875275305816656,35670,1758875275294137152,base_link,0.0009697161722638559,0.006255063013703817,-0.01931054802278178,-0.9997935054748741,1.0,0.0,0.0,0.0,1.0,0.0,0.0,0.0,1.0,-0.0015331471804529428,0.001133357174694538,-0.0015690751606598499,1.2184696791468346e-07,0.0,0.0,0.0,1.2184696791468346e-07,0.0,0.0,0.0,1.2184696791468346e-07,0.13105499744415283,0.019896382465959796,9.797530174255371,8.999999999999999e-08,0.0,0.0,0.0,8.999999999999999e-08,0.0,0.0,0.0,8.999999999999999e-08
1758875275313932272,35671,1758875275305137152,base_link,0.0009738472219624313,0.006240780500414688,-0.01931067446332726,-0.9997936319154196,1.0,0.0,0.0,0.0,1.0,0.0,0.0,0.0,1.0,0.002730261767283082,0.004034632816910744,0.0011408150894567366,1.2184696791468346e-07,0.0,0.0,0.0,1.2184696791468346e-07,0.0,0.0,0.0,1.2184696791468346e-07,0.11435554921627045,-0.02434771880507349,9.788698196411133,8.999999999999999e-08,0.0,0.0,0.0,8.999999999999999e-08,0.0,0.0,0.0,8.999999999999999e-08
1758875275329542864,35672,1758875275324137152,base_link,0.0009428569405973995,0.006223145172399291,-0.019308019211871117,-0.9997938426496622,1.0,0.0,0.0,0.0,1.0,0.0,0.0,0.0,1.0,-0.00020628259517252445,0.0017385215032845738,0.0013142806710675357,1.2184696791468346e-07,0.0,0.0,0.0,1.2184696791468346e-07,0.0,0.0,0.0,1.2184696791468346e-07,0.11491666734218597,-0.034637071192263356,9.830262184143066,8.999999999999999e-08,0.0,0.0,0.0,8.999999999999999e-08,0.0,0.0,0.0,8.999999999999999e-08
1758875275342886352,35673,1758875275335137152,base_link,0.0009433409708107668,0.0062200394764996446,-0.019313161127389466,-0.9997937583559652,1.0,0.0,0.0,0.0,1.0,0.0,0.0,0.0,1.0,0.00011974363587796688,0.0010055750608444214,-0.0005684521747753025,1.2184696791468346e-07,0.0,0.0,0.0,1.2184696791468346e-07,0.0,0.0,0.0,1.2184696791468346e-07,0.10394863039255142,-0.05405084043741106,9.805716514587402,8.999999999999999e-08,0.0,0.0,0.0,8.999999999999999e-08,0.0,0.0,0.0,8.999999999999999e-08
1758875275353928720,35674,1758875275344137152,base_link,0.0009407762692244284,0.006202757622248908,-0.01930700768750691,-0.9997939269433591,1.0,0.0,0.0,0.0,1.0,0.0,0.0,0.0,1.0,-0.00225072237662971,0.000528936507180333,-0.0012048083590343595,1.2184696791468346e-07,0.0,0.0,0.0,1.2184696791468346e-07,0.0,0.0,0.0,1.2184696791468346e-07,0.11504501849412918,0.01704525761306406,9.79902172088623,8.999999999999999e-08,0.0,0.0,0.0,8.999999999999999e-08,0.0,0.0,0.0,8.999999999999999e-08
1758875275377163728,35675,1758875275369133824,base_link,0.0009498587504423989,0.006223882577612105,-0.01931493129502693,-0.999793674062268,1.0,0.0,0.0,0.0,1.0,0.0,0.0,0.0,1.0,-0.0019427028018981218,-0.0021571258548647165,-3.1595467589795325e-05,1.2184696791468346e-07,0.0,0.0,0.0,1.2184696791468346e-07,0.0,0.0,0.0,1.2184696791468346e-07,0.12769421935081482,-0.0008545992895948817,9.791365623474121,8.999999999999999e-08,0.0,0.0,0.0,8.999999999999999e-08,0.0,0.0,0.0,8.999999999999999e-08
1758875275382185840,35676,1758875275374133824,base_link,0.0009407677081458243,0.0062161076365147335,-0.019317797280725683,-0.999793674062268,1.0,0.0,0.0,0.0,1.0,0.0,0.0,0.0,1.0,-0.0011029771994799376,-0.0004499831702560185,0.0014856625348329544,1.2184696791468346e-07,0.0,0.0,0.0,1.2184696791468346e-07,0.0,0.0,0.0,1.2184696791468346e-07,0.1270621418952942,0.0021717371419084155,9.800665855407715,8.999999999999999e-08,0.0,0.0,0.0,8.999999999999999e-08,0.0,0.0,0.0,8.999999999999999e-08
1758875275389839344,35677,1758875275383133824,base_link,0.0009463783427177101,0.006228095945374179,-0.019331368565946187,-0.99979333688748,1.0,0.0,0.0,0.0,1.0,0.0,0.0,0.0,1.0,-0.003128777490928769,0.0007792939431965351,-0.00040319550316780816,1.2184696791468346e-07,0.0,0.0,0.0,1.2184696791468346e-07,0.0,0.0,0.0,1.2184696791468346e-07,0.10884571075439453,-0.008973341435192815,9.806946754455566,8.999999999999999e-08,0.0,0.0,0.0,8.999999999999999e-08,0.0,0.0,0.0,8.999999999999999e-08
1758875275392500752,35678,1758875275389133824,base_link,0.0009647510759459201,0.00621625202239811,-0.019318134455513773,-0.999793674062268,1.0,0.0,0.0,0.0,1.0,0.0,0.0,0.0,1.0,-0.0017229693476110697,0.001191958086565137,-0.0003564505605027081,1.2184696791468346e-07,0.0,0.0,0.0,1.2184696791468346e-07,0.0,0.0,0.0,1.2184696791468346e-07,0.10956218838691711,0.007067329250277292,9.824705123901367,8.999999999999999e-08,0.0,0.0,0.0,8.999999999999999e-08,0.0,0.0,0.0,8.999999999999999e-08
1758875275406502256,35679,1758875275399133824,base_link,0.0009631982279960967,0.006216981689712954,-0.01931130666605498,-0.9997937583559652,1.0,0.0,0.0,0.0,1.0,0.0,0.0,0.0,1.0,0.0008507610764354467,-0.00010288599878549585,-0.0007610536413267255,1.2184696791468346e-07,0.0,0.0,0.0,1.2184696791468346e-07,0.0,0.0,0.0,1.2184696791468346e-07,0.105769082903862,-0.00013862038031100217,9.816699028015137,8.999999999999999e-08,0.0,0.0,0.0,8.999999999999999e-08,0.0,0.0,0.0,8.999999999999999e-08
1758875275410523056,35680,1758875275404133824,base_link,0.000959731485069949,0.006213814913810192,-0.019316279994179286,-0.999793674062268,1.0,0.0,0.0,0.0,1.0,0.0,0.0,0.0,1.0,0.001126901712268591,-0.00048029772005975246,9.152502752840524e-05,1.2184696791468346e-07,0.0,0.0,0.0,1.2184696791468346e-07,0.0,0.0,0.0,1.2184696791468346e-07,0.10678732395172119,0.0007726051844668452,9.786673545837402,8.999999999999999e-08,0.0,0.0,0.0,8.999999999999999e-08,0.0,0.0,0.0,8.999999999999999e-08
1758875275415678992,35681,1758875275413133824,base_link,0.0009591743564161953,0.006217502104510387,-0.01932761749642865,-0.9997934633280255,1.0,0.0,0.0,0.0,1.0,0.0,0.0,0.0,1.0,-0.0009805525187402964,-0.0021110738161951303,0.0007911009015515449,1.2184696791468346e-07,0.0,0.0,0.0,1.2184696791468346e-07,0.0,0.0,0.0,1.2184696791468346e-07,0.13302429020404816,-0.04566530510783075,9.863743782043457,8.999999999999999e-08,0.0,0.0,0.0,8.999999999999999e-08,0.0,0.0,0.0,8.999999999999999e-08
1758875275434565488,35682,1758875275429133824,base_link,0.0009715469259960477,0.006223199337685073,-0.019305701135203066,-0.9997938847965107,1.0,0.0,0.0,0.0,1.0,0.0,0.0,0.0,1.0,-0.0018226706888526678,0.0009162516798824071,-0.0005312834400683643,1.2184696791468346e-07,0.0,0.0,0.0,1.2184696791468346e-07,0.0,0.0,0.0,1.2184696791468346e-07,0.09677542746067047,-0.022088402882217164,9.783737182617188,8.999999999999999e-08,0.0,0.0,0.0,8.999999999999999e-08,0.0,0.0,0.0,8.999999999999999e-08
1758875275441850864,35683,1758875275434133824,base_link,0.0009702553555797669,0.006219919950671446,-0.019304310289202143,-0.9997938426496622,1.0,0.0,0.0,0.0,1.0,0.0,0.0,0.0,1.0,-0.0005721775814890862,0.001638853340409696,-0.0006255132611840966,1.2184696791468346e-07,0.0,0.0,0.0,1.2184696791468346e-07,0.0,0.0,0.0,1.2184696791468346e-07,0.07154504954814911,0.004018729552627814,9.832748413085938,8.999999999999999e-08,0.0,0.0,0.0,8.999999999999999e-08,0.0,0.0,0.0,8.999999999999999e-08
1758875275448532656,35684,1758875275443133824,base_link,0.0009743755392939605,0.006213442177618674,-0.01930586972259711,-0.9997938847965107,1.0,0.0,0.0,0.0,1.0,0.0,0.0,0.0,1.0,-0.002770062303170562,0.0002377296332269906,-0.0008140954887494445,1.2184696791468346e-07,0.0,0.0,0.0,1.2184696791468346e-07,0.0,0.0,0.0,1.2184696791468346e-07,0.07154504954814911,0.004018729552627814,9.832748413085938,8.999999999999999e-08,0.0,0.0,0.0,8.999999999999999e-08,0.0,0.0,0.0,8.999999999999999e-08
1758875275460348208,35685,1758875275449131520,base_link,0.000978695920538581,0.006207746755441386,-0.0193039309675656,-0.9997939690902077,1.0,0.0,0.0,0.0,1.0,0.0,0.0,0.0,1.0,-0.003150769742205739,0.00014343508519232295,0.0016683695139363408,1.2184696791468346e-07,0.0,0.0,0.0,1.2184696791468346e-07,0.0,0.0,0.0,1.2184696791468346e-07,0.11061970889568329,-0.003940647467969648,9.804064750671387,8.999999999999999e-08,0.0,0.0,0.0,8.999999999999999e-08,0.0,0.0,0.0,8.999999999999999e-08
1758875275470598000,35686,1758875275464131520,base_link,0.0009777296711092434,0.006210392293366079,-0.019311222372357904,-0.9997937583559652,1.0,0.0,0.0,0.0,1.0,0.0,0.0,0.0,1.0,0.0007548588328063488,-0.0016978413332253692,0.0019751405343413353,1.2184696791468346e-07,0.0,0.0,0.0,1.2184696791468346e-07,0.0,0.0,0.0,1.2184696791468346e-07,0.12455960363149643,-0.050348810851572744,9.778870582580566,8.999999999999999e-08,0.0,0.0,0.0,8.999999999999999e-08,0.0,0.0,0.0,8.999999999999999e-08
1758875275480471152,35687,1758875275474131520,base_link,0.0009717352697253309,0.006208719261043549,-0.01932964054515718,-0.9997934633280255,1.0,0.0,0.0,0.0,1.0,0.0,0.0,0.0,1.0,0.002522373339161277,0.0004159698728471996,0.0014591366052627563,1.2184696791468346e-07,0.0,0.0,0.0,1.2184696791468346e-07,0.0,0.0,0.0,1.2184696791468346e-07,0.13490210473537445,-0.02540824376046537,9.820464134216309,8.999999999999999e-08,0.0,0.0,0.0,8.999999999999999e-08,0.0,0.0,0.0,8.999999999999999e-08
1758875275489683152,35688,1758875275478131520,base_link,0.0009541050454298713,0.006208144680960335,-0.019316490728421783,-0.9997937162091166,1.0,0.0,0.0,0.0,1.0,0.0,0.0,0.0,1.0,0.002906259847804904,-0.0010255898814648388,0.0011620275909081104,1.2184696791468346e-07,0.0,0.0,0.0,1.2184696791468346e-07,0.0,0.0,0.0,1.2184696791468346e-07,0.1359914243221283,-0.03693296015262484,9.810148239135742,8.999999999999999e-08,0.0,0.0,0.0,8.999999999999999e-08,0.0,0.0,0.0,8.999999999999999e-08
1758875275502596944,35689,1758875275498131520,base_link,0.0009402695192255356,0.00622382149760899,-0.019333602348917275,-0.9997932947406315,1.0,0.0,0.0,0.0,1.0,0.0,0.0,0.0,1.0,0.0027699109632521868,-0.0013455257285386322,0.0021723927929997444,1.2184696791468346e-07,0.0,0.0,0.0,1.2184696791468346e-07,0.0,0.0,0.0,1.2184696791468346e-07,0.11333519965410233,-0.029375841841100443,9.821784973144531,8.999999999999999e-08,0.0,0.0,0.0,8.999999999999999e-08,0.0,0.0,0.0,8.999999999999999e-08
1758875275513794000,35690,1758875275508131520,base_link,0.000948715517176541,0.006216807175418339,-0.019322475580910412,-0.9997935476217226,1.0,0.0,0.0,0.0,1.0,0.0,0.0,0.0,1.0,-0.0024051747750490904,-0.0008213010150939227,-0.0009351760381832718,1.2184696791468346e-07,0.0,0.0,0.0,1.2184696791468346e-07,0.0,0.0,0.0,1.2184696791468346e-07,0.12865987420082092,-0.05694380775093912,9.822980880737305,8.999999999999999e-08,0.0,0.0,0.0,8.999999999999999e-08,0.0,0.0,0.0,8.999999999999999e-08
1758875275524501616,35691,1758875275519131520,base_link,0.0009637777471631215,0.006213998483091792,-0.019311390959751946,-0.9997937583559652,1.0,0.0,0.0,0.0,1.0,0.0,0.0,0.0,1.0,-0.002147269668057561,4.792353138327273e-06,-0.0026560863479971886,1.2184696791468346e-07,0.0,0.0,0.0,1.2184696791468346e-07,0.0,0.0,0.0,1.2184696791468346e-07,0.12316349893808365,-0.03835299238562463,9.838203430175781,8.999999999999999e-08,0.0,0.0,0.0,8.999999999999999e-08,0.0,0.0,0.0,8.999999999999999e-08
1758875275534794192,35692,1758875275523131520,base_link,0.0009742683611752864,0.006218740003549268,-0.01933014630733937,-0.9997933790343285,1.0,0.0,0.0,0.0,1.0,0.0,0.0,0.0,1.0,-0.0027123645413666964,0.0017489836318418384,-0.0002499590627849104,1.2184696791468346e-07,0.0,0.0,0.0,1.2184696791468346e-07,0.0,0.0,0.0,1.2184696791468346e-07,0.10480272024869919,-0.017856627702711812,9.795623779296875,8.999999999999999e-08,0.0,0.0,0.0,8.999999999999999e-08,0.0,0.0,0.0,8.999999999999999e-08
1758875275541525072,35693,1758875275537131520,base_link,0.0009821605231950781,0.006210335493902265,-0.019309283617326395,-0.9997938426496622,1.0,0.0,0.0,0.0,1.0,0.0,0.0,0.0,1.0,-0.00032057473435997963,5.468190647661673e-05,-0.001026399782858789,1.2184696791468346e-07,0.0,0.0,0.0,1.2184696791468346e-07,0.0,0.0,0.0,1.2184696791468346e-07,0.12229982018470764,-0.00698739849030852,9.757359504699707,8.999999999999999e-08,0.0,0.0,0.0,8.999999999999999e-08,0.0,0.0,0.0,8.999999999999999e-08
1758875275549526896,35694,1758875275538131520,base_link,0.0009667117275823117,0.00620407273563135,-0.019306839100112865,-0.9997939269433591,1.0,0.0,0.0,0.0,1.0,0.0,0.0,0.0,1.0,0.0048293182626366615,0.002845635637640953,0.0006367308087646958,1.2184696791468346e-07,0.0,0.0,0.0,1.2184696791468346e-07,0.0,0.0,0.0,1.2184696791468346e-07,0.14113259315490723,-0.011506324633954753,9.822609901428223,8.999999999999999e-08,0.0,0.0,0.0,8.999999999999999e-08,0.0,0.0,0.0,8.999999999999999e-08
1758875275565987888,35695,1758875275558129216,base_link,0.0009443271412114708,0.006186585744766377,-0.019315015588723897,-0.9997938426496622,1.0,0.0,0.0,0.0,1.0,0.0,0.0,0.0,1.0,-0.0003367068711668253,0.00028388202190399175,0.0005044574500061572,1.2184696791468346e-07,0.0,0.0,0.0,1.2184696791468346e-07,0.0,0.0,0.0,1.2184696791468346e-07,0.12333475053310394,-0.06041997671127199,9.820219039916992,8.999999999999999e-08,0.0,0.0,0.0,8.999999999999999e-08,0.0,0.0,0.0,8.999999999999999e-08
1758875275577477072,35696,1758875275567129216,base_link,0.0009341985620425697,0.0061822105396914665,-0.01931303468684388,-0.9997939690902077,1.0,0.0,0.0,0.0,1.0,0.0,0.0,0.0,1.0,0.00024325144477188587,0.00019082217477262012,-0.0006046111229807138,1.2184696791468346e-07,0.0,0.0,0.0,1.2184696791468346e-07,0.0,0.0,0.0,1.2184696791468346e-07,0.11197125166654587,-0.026424264535306684,9.811159133911133,8.999999999999999e-08,0.0,0.0,0.0,8.999999999999999e-08,0.0,0.0,0.0,8.999999999999999e-08
1758875275588344720,35697,1758875275582129216,base_link,0.0009251974110713352,0.006179287425256658,-0.01930932576417496,-0.9997940533839048,1.0,0.0,0.0,0.0,1.0,0.0,0.0,0.0,1.0,0.0026211831718683243,0.0006726656574755908,0.00045096303801983584,1.2184696791468346e-07,0.0,0.0,0.0,1.2184696791468346e-07,0.0,0.0,0.0,1.2184696791468346e-07,0.11978334188461304,-0.004468865692614306,9.82016372680664,8.999999999999999e-08,0.0,0.0,0.0,8.999999999999999e-08,0.0,0.0,0.0,8.999999999999999e-08
1758875275592760336,35698,1758875275588129216,base_link,0.0009141496684054169,0.006168964081549521,-0.01932015750424225,-0.9997939269433592,1.0,0.0,0.0,0.0,1.0,0.0,0.0,0.0,1.0,0.0030209957621991634,0.002906195353716612,0.00014181376900523866,1.2184696791468346e-07,0.0,0.0,0.0,1.2184696791468346e-07,0.0,0.0,0.0,1.2184696791468346e-07,0.09595285356044769,-0.013373995199798337,9.808258056640625,8.999999999999999e-08,0.0,0.0,0.0,8.999999999999999e-08,0.0,0.0,0.0,8.999999999999999e-08
1758875275605870576,35699,1758875275598129216,base_link,0.000934728525735369,0.006163573236207175,-0.0193224755809103,-0.9997938847965107,1.0,0.0,0.0,0.0,1.0,0.0,0.0,0.0,1.0,-0.0036501737777143717,0.0013442935887724163,0.0009458828717470167,1.2184696791468346e-07,0.0,0.0,0.0,1.2184696791468346e-07,0.0,0.0,0.0,1.2184696791468346e-07,0.08687885850667953,-0.015669276937841165,9.824710845947266,8.999999999999999e-08,0.0,0.0,0.0,8.999999999999999e-08,0.0,0.0,0.0,8.999999999999999e-08
1758875275614494320,35700,1758875275603129216,base_link,0.0009355666882579038,0.006165113736447473,-0.01931164384084307,-0.9997940955307533,1.0,0.0,0.0,0.0,1.0,0.0,0.0,0.0,1.0,-0.0010209295433014631,0.000466018682345748,0.00028016156284138555,1.2184696791468346e-07,0.0,0.0,0.0,1.2184696791468346e-07,0.0,0.0,0.0,1.2184696791468346e-07,0.09060192108154297,-0.009312639944254152,9.8036527633667,8.999999999999999e-08,0.0,0.0,0.0,8.999999999999999e-08,0.0,0.0,0.0,8.999999999999999e-08
1758875275623374544,35701,1758875275618129216,base_link,0.0009492044864737178,0.00616388094112853,-0.01931982032945416,-0.9997939269433592,1.0,0.0,0.0,0.0,1.0,0.0,0.0,0.0,1.0,-0.002000769367441535,-0.001417066203430295,-0.0006210076389834283,1.2184696791468346e-07,0.0,0.0,0.0,1.2184696791468346e-07,0.0,0.0,0.0,1.2184696791468346e-07,0.10892822593450546,-0.007386419922112214,9.837775230407715,8.999999999999999e-08,0.0,0.0,0.0,8.999999999999999e-08,0.0,0.0,0.0,8.999999999999999e-08
1758875275634564112,35702,1758875275628129216,base_link,0.0009478995805311503,0.006157866783409377,-0.01932146405654609,-0.9997939690902077,1.0,0.0,0.0,0.0,1.0,0.0,0.0,0.0,1.0,-0.0005020636599510908,0.0005152435041964056,0.0019075495656579733,1.2184696791468346e-07,0.0,0.0,0.0,1.2184696791468346e-07,0.0,0.0,0.0,1.2184696791468346e-07,0.12169372290372849,-0.0614771693944919,9.79094409942627,8.999999999999999e-08,0.0,0.0,0.0,8.999999999999999e-08,0.0,0.0,0.0,8.999999999999999e-08
1758875275645347664,35703,1758875275633129216,base_link,0.0009511050459237563,0.006164488777709398,-0.01930734486229494,-0.9997941798244503,1.0,0.0,0.0,0.0,1.0,0.0,0.0,0.0,1.0,-6.37182965874672e-05,-0.00043949927203357203,0.0014533339999616146,1.2184696791468346e-07,0.0,0.0,0.0,1.2184696791468346e-07,0.0,0.0,0.0,1.2184696791468346e-07,0.12162790447473526,-0.052184525877236126,9.771598815917969,8.999999999999999e-08,0.0,0.0,0.0,8.999999999999999e-08,0.0,0.0,0.0,8.999999999999999e-08
1758875275647170384,35704,1758875275642129216,base_link,0.0009522255594040888,0.006159264873399825,-0.01932521512606352,-0.9997938426496622,1.0,0.0,0.0,0.0,1.0,0.0,0.0,0.0,1.0,0.0003531456459313631,7.283128798007987e-05,0.0017645378829911351,1.2184696791468346e-07,0.0,0.0,0.0,1.2184696791468346e-07,0.0,0.0,0.0,1.2184696791468346e-07,0.11606910079717636,-0.04484554007649301,9.843402862548828,8.999999999999999e-08,0.0,0.0,0.0,8.999999999999999e-08,0.0,0.0,0.0,8.999999999999999e-08
1758875275658634960,35705,1758875275648129216,base_link,0.0009328226979292667,0.006151662141691291,-0.019344223354742007,-0.9997935476217226,1.0,0.0,0.0,0.0,1.0,0.0,0.0,0.0,1.0,0.0035944983828812838,0.002596037462353707,0.0033746161498129363,1.2184696791468346e-07,0.0,0.0,0.0,1.2184696791468346e-07,0.0,0.0,0.0,1.2184696791468346e-07,0.10234758257865906,0.013531677424908883,9.788677215576172,8.999999999999999e-08,0.0,0.0,0.0,8.999999999999999e-08,0.0,0.0,0.0,8.999999999999999e-08
1758875275674567728,35706,1758875275672123328,base_link,0.0009300449571945959,0.0061433012606179425,-0.019340177257284947,-0.9997937162091167,1.0,0.0,0.0,0.0,1.0,0.0,0.0,0.0,1.0,0.004210091661661863,-0.0007697662804275748,0.0024347000289708376,1.2184696791468346e-07,0.0,0.0,0.0,1.2184696791468346e-07,0.0,0.0,0.0,1.2184696791468346e-07,0.10170643031597137,-0.03181977570056795,9.797950744628906,8.999999999999999e-08,0.0,0.0,0.0,8.999999999999999e-08,0.0,0.0,0.0,8.999999999999999e-08
1758875275684849712,35707,1758875275673123328,base_link,0.000907737255895062,0.006146626416474874,-0.0193493652702603,-0.9997935476217226,1.0,0.0,0.0,0.0,1.0,0.0,0.0,0.0,1.0,0.004399594850838184,-0.0019477012101560829,0.0018648861441761257,1.2184696791468346e-07,0.0,0.0,0.0,1.2184696791468346e-07,0.0,0.0,0.0,1.2184696791468346e-07,0.1201271191239357,-0.014766170643268817,9.782722473144531,8.999999999999999e-08,0.0,0.0,0.0,8.999999999999999e-08,0.0,0.0,0.0,8.999999999999999e-08
1758875275693467440,35708,1758875275688123328,base_link,0.0008985811823283245,0.006148919797723924,-0.019339039292375147,-0.9997936740622682,1.0,0.0,0.0,0.0,1.0,0.0,0.0,0.0,1.0,0.001571276574395597,-0.00024216156452894205,0.0004471821011975408,1.2184696791468346e-07,0.0,0.0,0.0,1.2184696791468346e-07,0.0,0.0,0.0,1.2184696791468346e-07,0.1165962815284729,-0.0352964773774135,9.794248580932617,8.999999999999999e-08,0.0,0.0,0.0,8.999999999999999e-08,0.0,0.0,0.0,8.999999999999999e-08
1758875275704974000,35709,1758875275693123328,base_link,0.0008876397946004455,0.006144528952216949,-0.019342284599710498,-0.9997936319154197,1.0,0.0,0.0,0.0,1.0,0.0,0.0,0.0,1.0,-0.0032134943176060915,-0.001394277671352029,-0.0020578783005476,1.2184696791468346e-07,0.0,0.0,0.0,1.2184696791468346e-07,0.0,0.0,0.0,1.2184696791468346e-07,0.12102916091680527,0.02038085274398447,9.792613983154297,8.999999999999999e-08,0.0,0.0,0.0,8.999999999999999e-08,0.0,0.0,0.0,8.999999999999999e-08
1758875275718499184,35710,1758875275708123328,base_link,0.0009066840785906707,0.006155718446588211,-0.019340978047406657,-0.9997935897685711,1.0,0.0,0.0,0.0,1.0,0.0,0.0,0.0,1.0,0.0015893123345449567,-0.00025764992460608466,0.001284227124415338,1.2184696791468346e-07,0.0,0.0,0.0,1.2184696791468346e-07,0.0,0.0,0.0,1.2184696791468346e-07,0.12442450225353241,-0.08123919367790101,9.811813354492188,8.999999999999999e-08,0.0,0.0,0.0,8.999999999999999e-08,0.0,0.0,0.0,8.999999999999999e-08
1758875275724556848,35711,1758875275718123328,base_link,0.000884837687718979,0.006143697869047875,-0.019336805509404007,-0.9997938005028136,1.0,0.0,0.0,0.0,1.0,0.0,0.0,0.0,1.0,0.004921702668070793,0.0010393150150775912,0.001275600749067962,1.2184696791468346e-07,0.0,0.0,0.0,1.2184696791468346e-07,0.0,0.0,0.0,1.2184696791468346e-07,0.1431465893983841,-0.026929641142486322,9.827652931213379,8.999999999999999e-08,0.0,0.0,0.0,8.999999999999999e-08,0.0,0.0,0.0,8.999999999999999e-08
1758875275732496624,35712,1758875275727123328,base_link,0.0009014904673284649,0.0061337365601840015,-0.019350376794624567,-0.9997935476217227,1.0,0.0,0.0,0.0,1.0,0.0,0.0,0.0,1.0,-0.0025337066035717726,0.0012752912007272246,0.0022265268489718437,1.2184696791468346e-07,0.0,0.0,0.0,1.2184696791468346e-07,0.0,0.0,0.0,1.2184696791468346e-07,0.1082712858915329,-0.02072585374116778,9.760154724121094,8.999999999999999e-08,0.0,0.0,0.0,8.999999999999999e-08,0.0,0.0,0.0,8.999999999999999e-08
1758875275740670256,35713,1758875275736123328,base_link,0.0008954856938685518,0.006136527636444959,-0.01936133497523744,-0.9997933790343285,1.0,0.0,0.0,0.0,1.0,0.0,0.0,0.0,1.0,-0.0009954425040632486,-0.0007658957038074733,-0.0005545688327401875,1.2184696791468346e-07,0.0,0.0,0.0,1.2184696791468346e-07,0.0,0.0,0.0,1.2184696791468346e-07,0.10959594696760178,-0.06701187789440034,9.835051536560059,8.999999999999999e-08,0.0,0.0,0.0,8.999999999999999e-08,0.0,0.0,0.0,8.999999999999999e-08
1758875275745544528,35714,1758875275738123328,base_link,0.0009032247442902376,0.006136353945330979,-0.019355518710142915,-0.9997934633280257,1.0,0.0,0.0,0.0,1.0,0.0,0.0,0.0,1.0,0.00104819075204432,0.0012013316154479978,-0.0010960904182866218,1.2184696791468346e-07,0.0,0.0,0.0,1.2184696791468346e-07,0.0,0.0,0.0,1.2184696791468346e-07,0.11953823268413544,-0.006016107276080837,9.814181327819824,8.999999999999999e-08,0.0,0.0,0.0,8.999999999999999e-08,0.0,0.0,0.0,8.999999999999999e-08
1758875275752479024,35715,1758875275748123328,base_link,0.0009027278724589645,0.00613646951989213,-0.019359227632811834,-0.9997933790343285,1.0,0.0,0.0,0.0,1.0,0.0,0.0,0.0,1.0,-0.0004408762324601412,0.0001297669950872661,0.0011660514865070581,1.2184696791468346e-07,0.0,0.0,0.0,1.2184696791468346e-07,0.0,0.0,0.0,1.2184696791468346e-07,0.08890771865844727,-0.014431563206015822,9.755722045898438,8.999999999999999e-08,0.0,0.0,0.0,8.999999999999999e-08,0.0,0.0,0.0,8.999999999999999e-08
1758875275758448784,35716,1758875275753123328,base_link,0.0009129415685055227,0.006132470508367405,-0.019366097569119136,-0.999793252593783,1.0,0.0,0.0,0.0,1.0,0.0,0.0,0.0,1.0,-0.003838525852188468,0.00024894741363823436,0.0018955054692924023,1.2184696791468346e-07,0.0,0.0,0.0,1.2184696791468346e-07,0.0,0.0,0.0,1.2184696791468346e-07,0.10455810278654099,-0.022071179002522225,9.784163475036621,8.999999999999999e-08,0.0,0.0,0.0,8.999999999999999e-08,0.0,0.0,0.0,8.999999999999999e-08
1758875275762514544,35717,1758875275757123328,base_link,0.0009099348189182007,0.0061320818024715685,-0.019357752493114,-0.999793421181177,1.0,0.0,0.0,0.0,1.0,0.0,0.0,0.0,1.0,-0.0018411015626043081,0.0008230903185904025,-0.001268428168259561,1.2184696791468346e-07,0.0,0.0,0.0,1.2184696791468346e-07,0.0,0.0,0.0,1.2184696791468346e-07,0.1092919260263443,-0.0726565346121776,9.80884075164795,8.999999999999999e-08,0.0,0.0,0.0,8.999999999999999e-08,0.0,0.0,0.0,8.999999999999999e-08
1758875275771197616,35718,1758875275768123328,base_link,0.0009104664289722693,0.006120565670024347,-0.01935277916498964,-0.9997935897685711,1.0,0.0,0.0,0.0,1.0,0.0,0.0,0.0,1.0,0.0006532282568514347,0.0005499029066413642,0.0012086621718481183,1.2184696791468346e-07,0.0,0.0,0.0,1.2184696791468346e-07,0.0,0.0,0.0,1.2184696791468346e-07,0.12771515548229218,-0.014330631121991864,9.8001708984375,8.999999999999999e-08,0.0,0.0,0.0,8.999999999999999e-08,0.0,0.0,0.0,8.999999999999999e-08
1758875275780493040,35719,1758875275772123328,base_link,0.0009005614256638285,0.0061247051161654,-0.019359564807599976,-0.9997934633280255,1.0,0.0,0.0,0.0,1.0,0.0,0.0,0.0,1.0,0.0008006934076547623,-0.0010841044131666422,0.00035614974331110727,1.2184696791468346e-07,0.0,0.0,0.0,1.2184696791468346e-07,0.0,0.0,0.0,1.2184696791468346e-07,0.10171303898096085,-0.03682943806052088,9.801054954528809,8.999999999999999e-08,0.0,0.0,0.0,8.999999999999999e-08,0.0,0.0,0.0,8.999999999999999e-08
1758875275790492528,35720,1758875275787123328,base_link,0.0008975028156965026,0.0061232250373837085,-0.019353242780323264,-0.9997936319154196,1.0,0.0,0.0,0.0,1.0,0.0,0.0,0.0,1.0,0.0006502841133624315,0.001334154512733221,-0.00045324407983571307,1.2184696791468346e-07,0.0,0.0,0.0,1.2184696791468346e-07,0.0,0.0,0.0,1.2184696791468346e-07,0.11219489574432373,-0.04107246547937273,9.823771476745605,8.999999999999999e-08,0.0,0.0,0.0,8.999999999999999e-08,0.0,0.0,0.0,8.999999999999999e-08
1758875275802844400,35721,1758875275797123328,base_link,0.000899390698164762,0.006114066823547319,-0.019359185485963378,-0.999793505474874,1.0,0.0,0.0,0.0,1.0,0.0,0.0,0.0,1.0,0.0016475040465593338,0.0006575179286301138,0.0016271838685497642,1.2184696791468346e-07,0.0,0.0,0.0,1.2184696791468346e-07,0.0,0.0,0.0,1.2184696791468346e-07,0.11882418394088745,-0.01647236943244814,9.796895980834961,8.999999999999999e-08,0.0,0.0,0.0,8.999999999999999e-08,0.0,0.0,0.0,8.999999999999999e-08
1758875275812577232,35722,1758875275802123328,base_link,0.0008893253392686274,0.006111742984614776,-0.019371492365728497,-0.9997933368874801,1.0,0.0,0.0,0.0,1.0,0.0,0.0,0.0,1.0,0.0005360622890293598,0.000806504162028432,0.0008652751566842197,1.2184696791468346e-07,0.0,0.0,0.0,1.2184696791468346e-07,0.0,0.0,0.0,1.2184696791468346e-07,0.1270398646593094,-0.03896067291498064,9.790964126586914,8.999999999999999e-08,0.0,0.0,0.0,8.999999999999999e-08,0.0,0.0,0.0,8.999999999999999e-08
1758875275816507856,35723,1758875275813123328,base_link,0.0008996797992037668,0.0061105528300527245,-0.01935471792002115,-0.9997936740622682,1.0,0.0,0.0,0.0,1.0,0.0,0.0,0.0,1.0,-0.0004006496164947748,0.00023465882986783968,-0.001110758283175528,1.2184696791468346e-07,0.0,0.0,0.0,1.2184696791468346e-07,0.0,0.0,0.0,1.2184696791468346e-07,0.15024767816066742,-0.04884829744696497,9.819718360900879,8.999999999999999e-08,0.0,0.0,0.0,8.999999999999999e-08,0.0,0.0,0.0,8.999999999999999e-08
1758875275825078960,35724,1758875275817123328,base_link,0.0008893992608896483,0.006112986810554228,-0.019367867736756545,-0.9997934211811771,1.0,0.0,0.0,0.0,1.0,0.0,0.0,0.0,1.0,-0.0005213853437453508,-0.0002087252214550971,0.0008419126970693469,1.2184696791468346e-07,0.0,0.0,0.0,1.2184696791468346e-07,0.0,0.0,0.0,1.2184696791468346e-07,0.14013510942459106,0.01154830865562082,9.782822608947754,8.999999999999999e-08,0.0,0.0,0.0,8.999999999999999e-08,0.0,0.0,0.0,8.999999999999999e-08
1758875275839508464,35725,1758875275827123328,base_link,0.0009038148001693901,0.006107495866446668,-0.01935842684269018,-0.999793589768571,1.0,0.0,0.0,0.0,1.0,0.0,0.0,0.0,1.0,-0.0001045579556375742,-0.001834179973229766,-0.0007155142957344649,1.2184696791468346e-07,0.0,0.0,0.0,1.2184696791468346e-07,0.0,0.0,0.0,1.2184696791468346e-07,0.08742865175008774,-0.030347594991325135,9.783172607421875,8.999999999999999e-08,0.0,0.0,0.0,8.999999999999999e-08,0.0,0.0,0.0,8.999999999999999e-08
1758875275845087504,35726,1758875275832123328,base_link,0.0008852826991702482,0.006120676634773943,-0.01936053418511573,-0.999793505474874,1.0,0.0,0.0,0.0,1.0,0.0,0.0,0.0,1.0,0.001704679918475449,-0.0022358957212418318,0.0012155045988038184,1.2184696791468346e-07,0.0,0.0,0.0,1.2184696791468346e-07,0.0,0.0,0.0,1.2184696791468346e-07,0.09768661111593246,-0.014557209797202342,9.794425010681152,8.999999999999999e-08,0.0,0.0,0.0,8.999999999999999e-08,0.0,0.0,0.0,8.999999999999999e-08
1758875275854531920,35727,1758875275847123328,base_link,0.0008798205663849128,0.006109945158107983,-0.019367994177302134,-0.9997933790343286,1.0,0.0,0.0,0.0,1.0,0.0,0.0,0.0,1.0,0.0024256431497633457,0.001851142733357847,0.0016751454677432773,1.2184696791468346e-07,0.0,0.0,0.0,1.2184696791468346e-07,0.0,0.0,0.0,1.2184696791468346e-07,0.0986747145652771,-0.0375784970819938,9.841168403625488,8.999999999999999e-08,0.0,0.0,0.0,8.999999999999999e-08,0.0,0.0,0.0,8.999999999999999e-08
1758875275866469488,35728,1758875275862121792,base_link,0.0008623727589181645,0.006092360373383574,-0.0193483958927446,-0.9997939269433591,1.0,0.0,0.0,0.0,1.0,0.0,0.0,0.0,1.0,0.003577868454158306,0.002079150872305035,-0.002144258935004473,1.2184696791468346e-07,0.0,0.0,0.0,1.2184696791468346e-07,0.0,0.0,0.0,1.2184696791468346e-07,0.12772923707962036,-0.019459199160336248,9.800545692443848,8.999999999999999e-08,0.0,0.0,0.0,8.999999999999999e-08,0.0,0.0,0.0,8.999999999999999e-08
1758875275873492496,35729,1758875275869121792,base_link,0.0008672505980887926,0.00608929945851047,-0.019340809460012612,-0.9997940955307533,1.0,0.0,0.0,0.0,1.0,0.0,0.0,0.0,1.0,0.0011357588227838278,-0.0004260658752173188,-0.0023431330919265747,1.2184696791468346e-07,0.0,0.0,0.0,1.2184696791468346e-07,0.0,0.0,0.0,1.2184696791468346e-07,0.12772923707962036,-0.019459199160336248,9.800545692443848,8.999999999999999e-08,0.0,0.0,0.0,8.999999999999999e-08,0.0,0.0,0.0,8.999999999999999e-08
1758875275882441904,35730,1758875275875121792,base_link,0.0008664824059202308,0.00609016972507777,-0.019352062668564953,-0.9997938005028136,1.0,0.0,0.0,0.0,1.0,0.0,0.0,0.0,1.0,-0.00048364861868321896,0.0006898676510900261,0.0018305536359548569,1.2184696791468346e-07,0.0,0.0,0.0,1.2184696791468346e-07,0.0,0.0,0.0,1.2184696791468346e-07,0.13589391112327576,-0.03302711993455767,9.811722755432129,8.999999999999999e-08,0.0,0.0,0.0,8.999999999999999e-08,0.0,0.0,0.0,8.999999999999999e-08
1758875275890970864,35731,1758875275884121792,base_link,0.0008865230677510338,0.006103735248033833,-0.019351430465837288,-0.9997937583559652,1.0,0.0,0.0,0.0,1.0,0.0,0.0,0.0,1.0,-0.0002216850407421589,-0.0009337470401078463,0.0001242628786712886,1.2184696791468346e-07,0.0,0.0,0.0,1.2184696791468346e-07,0.0,0.0,0.0,1.2184696791468346e-07,0.12702982127666473,-0.04154135659336924,9.777656555175781,8.999999999999999e-08,0.0,0.0,0.0,8.999999999999999e-08,0.0,0.0,0.0,8.999999999999999e-08
1758875275900510384,35732,1758875275895121792,base_link,0.0008767604746924441,0.006106618026617527,-0.019340430138376014,-0.9997939690902078,1.0,0.0,0.0,0.0,1.0,0.0,0.0,0.0,1.0,-0.00034204195253551006,-0.0009235769975930455,-0.0016446401132270692,1.2184696791468346e-07,0.0,0.0,0.0,1.2184696791468346e-07,0.0,0.0,0.0,1.2184696791468346e-07,0.13059911131858826,-0.021988732740281812,9.792376518249512,8.999999999999999e-08,0.0,0.0,0.0,8.999999999999999e-08,0.0,0.0,0.0,8.999999999999999e-08
1758875275914719088,35733,1758875275899121792,base_link,0.0008668888925177828,0.00610276817542386,-0.019348016571108004,-0.9997938005028136,1.0,0.0,0.0,0.0,1.0,0.0,0.0,0.0,1.0,-0.0014500583056360483,-0.002203181153163314,-0.0004771369276568291,1.2184696791468346e-07,0.0,0.0,0.0,1.2184696791468346e-07,0.0,0.0,0.0,1.2184696791468346e-07,0.0992702841758728,0.00113277230411888,9.802793502807617,8.999999999999999e-08,0.0,0.0,0.0,8.999999999999999e-08,0.0,0.0,0.0,8.999999999999999e-08
1758875275924765776,35734,1758875275919121792,base_link,0.0008879593533229442,0.00610332168208282,-0.01934751080892587,-0.9997938005028136,1.0,0.0,0.0,0.0,1.0,0.0,0.0,0.0,1.0,-0.002754062181338668,-0.0006393424700945614,0.0017168878111988306,1.2184696791468346e-07,0.0,0.0,0.0,1.2184696791468346e-07,0.0,0.0,0.0,1.2184696791468346e-07,0.12542088329792023,-0.03574302792549014,9.770062446594238,8.999999999999999e-08,0.0,0.0,0.0,8.999999999999999e-08,0.0,0.0,0.0,8.999999999999999e-08
1758875275942316560,35735,1758875275934121792,base_link,0.0009038511847534561,0.0060973205306177,-0.019347173634137727,-0.9997938847965107,1.0,0.0,0.0,0.0,1.0,0.0,0.0,0.0,1.0,-0.0015319332014769316,-0.0005280629266053439,-0.0009824807057157159,1.2184696791468346e-07,0.0,0.0,0.0,1.2184696791468346e-07,0.0,0.0,0.0,1.2184696791468346e-07,0.10503241419792175,-0.04528044909238695,9.795533180236816,8.999999999999999e-08,0.0,0.0,0.0,8.999999999999999e-08,0.0,0.0,0.0,8.999999999999999e-08
1758875275955678480,35736,1758875275949121792,base_link,0.0008888251747148143,0.006099016941270264,-0.019357836786811022,-0.999793674062268,1.0,0.0,0.0,0.0,1.0,0.0,0.0,0.0,1.0,0.0010986700654029846,9.776954539120177e-05,-0.0017135589150711894,1.2184696791468346e-07,0.0,0.0,0.0,1.2184696791468346e-07,0.0,0.0,0.0,1.2184696791468346e-07,0.10569065064191818,-0.037053681910036794,9.795014381408691,8.999999999999999e-08,0.0,0.0,0.0,8.999999999999999e-08,0.0,0.0,0.0,8.999999999999999e-08
1758875275964494576,35737,1758875275959120256,base_link,0.0008994216497566373,0.006092059583179553,-0.019335709691342774,-0.9997941376776017,1.0,0.0,0.0,0.0,1.0,0.0,0.0,0.0,1.0,-0.0004595206119120121,0.0010599931702017782,-0.0009219778003171087,1.2184696791468346e-07,0.0,0.0,0.0,1.2184696791468346e-07,0.0,0.0,0.0,1.2184696791468346e-07,0.08787918835878372,-0.03634731471538424,9.783846855163574,8.999999999999999e-08,0.0,0.0,0.0,8.999999999999999e-08,0.0,0.0,0.0,8.999999999999999e-08
1758875275971557072,35738,1758875275964120256,base_link,0.000893104067655432,0.006087018589607073,-0.01934426550159052,-0.9997940112370561,1.0,0.0,0.0,0.0,1.0,0.0,0.0,0.0,1.0,0.001972855068743229,0.0007032761350274086,0.0003682047827169298,1.2184696791468346e-07,0.0,0.0,0.0,1.2184696791468346e-07,0.0,0.0,0.0,1.2184696791468346e-07,0.11618822067975998,-0.0338694266974914,9.808738708496094,8.999999999999999e-08,0.0,0.0,0.0,8.999999999999999e-08,0.0,0.0,0.0,8.999999999999999e-08
1758875275980740656,35739,1758875275979120256,base_link,0.0008887897779475104,0.006082138939439047,-0.01933752200582875,-0.9997941798244503,1.0,0.0,0.0,0.0,1.0,0.0,0.0,0.0,1.0,0.00010284665040671825,0.0006787974853068592,0.0013923603110015392,1.2184696791468346e-07,0.0,0.0,0.0,1.2184696791468346e-07,0.0,0.0,0.0,1.2184696791468346e-07,0.11341198533773422,-0.03188918530940889,9.85030460357666,8.999999999999999e-08,0.0,0.0,0.0,8.999999999999999e-08,0.0,0.0,0.0,8.999999999999999e-08
1758875275995649392,35740,1758875275989120256,base_link,0.00086925421975433,0.006073962286191807,-0.019341230928497724,-0.9997941798244503,1.0,0.0,0.0,0.0,1.0,0.0,0.0,0.0,1.0,0.0035428244154900312,-4.014233127236458e-06,-0.0007478491170331836,1.2184696791468346e-07,0.0,0.0,0.0,1.2184696791468346e-07,0.0,0.0,0.0,1.2184696791468346e-07,0.12800249457359314,0.0028400756418717013,9.818764686584473,8.999999999999999e-08,0.0,0.0,0.0,8.999999999999999e-08,0.0,0.0,0.0,8.999999999999999e-08
1758875276000672944,35741,1758875275994120256,base_link,0.0008775708137095167,0.006072778387802581,-0.019337522005828695,-0.9997942641181473,1.0,0.0,0.0,0.0,1.0,0.0,0.0,0.0,1.0,0.0018696230836212635,-0.00017308606766164306,-0.00016125175170600412,1.2184696791468346e-07,0.0,0.0,0.0,1.2184696791468346e-07,0.0,0.0,0.0,1.2184696791468346e-07,0.11309836804866791,0.008808713406325589,9.817017555236816,8.999999999999999e-08,0.0,0.0,0.0,8.999999999999999e-08,0.0,0.0,0.0,8.999999999999999e-08
1758875276009559920,35742,1758875276004120256,base_link,0.0008907871434402219,0.006094107985871633,-0.019328460433398927,-0.9997942219712987,1.0,0.0,0.0,0.0,1.0,0.0,0.0,0.0,1.0,-0.004671858623623848,-0.0034627688582986593,-0.0006479641888290639,1.2184696791468346e-07,0.0,0.0,0.0,1.2184696791468346e-07,0.0,0.0,0.0,1.2184696791468346e-07,0.11437403410673141,-0.0446401983499515,9.794815063476562,8.999999999999999e-08,0.0,0.0,0.0,8.999999999999999e-08,0.0,0.0,0.0,8.999999999999999e-08
1758875276014469168,35743,1758875276009120256,base_link,0.0008985336024876227,0.006097031264942569,-0.019339587201405793,-0.9997939690902078,1.0,0.0,0.0,0.0,1.0,0.0,0.0,0.0,1.0,-0.004392137750983238,-0.002541439374908805,0.0015702699311077597,1.2184696791468346e-07,0.0,0.0,0.0,1.2184696791468346e-07,0.0,0.0,0.0,1.2184696791468346e-07,0.14054353535175323,-0.008573900908230538,9.769242286682129,8.999999999999999e-08,0.0,0.0,0.0,8.999999999999999e-08,0.0,0.0,0.0,8.999999999999999e-08
1758875276024625456,35744,1758875276019120256,base_link,0.0008883748949074812,0.00609574117625143,-0.019322138406122215,-0.9997943905586928,1.0,0.0,0.0,0.0,1.0,0.0,0.0,0.0,1.0,0.0010413667187094688,0.00014359480701386904,-0.0018867960898205638,1.2184696791468346e-07,0.0,0.0,0.0,1.2184696791468346e-07,0.0,0.0,0.0,1.2184696791468346e-07,0.12859110534191132,0.00539454724639774,9.791361808776855,8.999999999999999e-08,0.0,0.0,0.0,8.999999999999999e-08,0.0,0.0,0.0,8.999999999999999e-08
1758875276036753872,35745,1758875276023120256,base_link,0.0008964122659912832,0.006093731463049194,-0.019323149930486536,-0.9997943062649959,1.0,0.0,0.0,0.0,1.0,0.0,0.0,0.0,1.0,-0.003052211133763194,-0.002712920075282455,-0.0024650963023304935,1.2184696791468346e-07,0.0,0.0,0.0,1.2184696791468346e-07,0.0,0.0,0.0,1.2184696791468346e-07,0.12618713080883026,-0.04046500101685404,9.805148124694824,8.999999999999999e-08,0.0,0.0,0.0,8.999999999999999e-08,0.0,0.0,0.0,8.999999999999999e-08
1758875276042586576,35746,1758875276038120256,base_link,0.0009278544735249183,0.006099824975381559,-0.019319230273575006,-0.9997943484118443,1.0,0.0,0.0,0.0,1.0,0.0,0.0,0.0,1.0,-0.005462381057441235,0.0006155113223940134,0.00031718355603516096,1.2184696791468346e-07,0.0,0.0,0.0,1.2184696791468346e-07,0.0,0.0,0.0,1.2184696791468346e-07,0.1360144168138504,0.0018153684213769543,9.821249008178711,8.999999999999999e-08,0.0,0.0,0.0,8.999999999999999e-08,0.0,0.0,0.0,8.999999999999999e-08
1758875276051469264,35747,1758875276047120256,base_link,0.0009288462415539404,0.006108098928579854,-0.019319988916848205,-0.9997942641181473,1.0,0.0,0.0,0.0,1.0,0.0,0.0,0.0,1.0,-0.0018314614426344633,0.00017247279174625863,-0.0009096035500988364,1.2184696791468346e-07,0.0,0.0,0.0,1.2184696791468346e-07,0.0,0.0,0.0,1.2184696791468346e-07,0.11183541268110275,-0.02384450659155725,9.844860076904297,8.999999999999999e-08,0.0,0.0,0.0,8.999999999999999e-08,0.0,0.0,0.0,8.999999999999999e-08
1758875276073682128,35748,1758875276067117440,base_link,0.0009352013606921006,0.006098015130437495,-0.01930131786295792,-0.9997947277334809,1.0,0.0,0.0,0.0,1.0,0.0,0.0,0.0,1.0,-0.002717410447075963,0.00021302164532244233,0.002145247533917427,1.2184696791468346e-07,0.0,0.0,0.0,1.2184696791468346e-07,0.0,0.0,0.0,1.2184696791468346e-07,0.12874731421470642,-0.009611411020158526,9.765284538269043,8.999999999999999e-08,0.0,0.0,0.0,8.999999999999999e-08,0.0,0.0,0.0,8.999999999999999e-08
1758875276078436720,35749,1758875276068117440,base_link,0.0009363317523400527,0.0060961530958411735,-0.019307934918174098,-0.9997946012929354,1.0,0.0,0.0,0.0,1.0,0.0,0.0,0.0,1.0,0.0010667461901903152,-0.0004703232552856203,0.0030476104002445936,1.2184696791468346e-07,0.0,0.0,0.0,1.2184696791468346e-07,0.0,0.0,0.0,1.2184696791468346e-07,0.09752586483955383,0.01650430634617926,9.820595741271973,8.999999999999999e-08,0.0,0.0,0.0,8.999999999999999e-08,0.0,0.0,0.0,8.999999999999999e-08
1758875276086546896,35750,1758875276079117440,base_link,0.0009491376442061578,0.006101642887495845,-0.0193062068973852,-0.9997945591460868,1.0,0.0,0.0,0.0,1.0,0.0,0.0,0.0,1.0,-0.0032009307760745287,-0.002346700755879283,7.777276914566784e-05,1.2184696791468346e-07,0.0,0.0,0.0,1.2184696791468346e-07,0.0,0.0,0.0,1.2184696791468346e-07,0.12549537420272827,-0.034599605947731725,9.795090675354004,8.999999999999999e-08,0.0,0.0,0.0,8.999999999999999e-08,0.0,0.0,0.0,8.999999999999999e-08
1758875276086560720,35751,1758875276083117440,base_link,0.0009527222665992348,0.006118300606189141,-0.019316153553633756,-0.9997943062649958,1.0,0.0,0.0,0.0,1.0,0.0,0.0,0.0,1.0,-0.00405914057046175,-0.004356244578957558,-0.00040015298873186057,1.2184696791468346e-07,0.0,0.0,0.0,1.2184696791468346e-07,0.0,0.0,0.0,1.2184696791468346e-07,0.13038815557956696,-0.05831504240631937,9.798630714416504,8.999999999999999e-08,0.0,0.0,0.0,8.999999999999999e-08,0.0,0.0,0.0,8.999999999999999e-08
1758875276114542960,35752,1758875276107117440,base_link,0.0009494471601249097,0.006128832214596927,-0.01931341400848048,-0.9997942641181473,1.0,0.0,0.0,0.0,1.0,0.0,0.0,0.0,1.0,-0.0004913692828267813,0.0005875760689377786,0.0009334333590231835,1.2184696791468346e-07,0.0,0.0,0.0,1.2184696791468346e-07,0.0,0.0,0.0,1.2184696791468346e-07,0.12288673967123032,-0.04297250881790995,9.804068565368652,8.999999999999999e-08,0.0,0.0,0.0,8.999999999999999e-08,0.0,0.0,0.0,8.999999999999999e-08
1758875276117463792,35753,1758875276113117440,base_link,0.0009599937504202531,0.006132837482294478,-0.019318092308665206,-0.9997941376776017,1.0,0.0,0.0,0.0,1.0,0.0,0.0,0.0,1.0,-0.0005716576706618071,-0.0012414094526320696,0.000723807082977146,1.2184696791468346e-07,0.0,0.0,0.0,1.2184696791468346e-07,0.0,0.0,0.0,1.2184696791468346e-07,0.12602552771568298,-0.035811468958853475,9.817222595214844,8.999999999999999e-08,0.0,0.0,0.0,8.999999999999999e-08,0.0,0.0,0.0,8.999999999999999e-08
1758875276121725072,35754,1758875276118117440,base_link,0.0009550487397098104,0.006136920458243971,-0.019318555923998885,-0.9997940955307532,1.0,0.0,0.0,0.0,1.0,0.0,0.0,0.0,1.0,-0.0003833528608083725,-0.001788828754797578,-0.0011714383726939557,1.2184696791468346e-07,0.0,0.0,0.0,1.2184696791468346e-07,0.0,0.0,0.0,1.2184696791468346e-07,0.13307484984397888,-0.004581221844999783,9.793444633483887,8.999999999999999e-08,0.0,0.0,0.0,8.999999999999999e-08,0.0,0.0,0.0,8.999999999999999e-08
1758875276130539600,35755,1758875276127117440,base_link,0.0009510744236041352,0.006131754176578847,-0.019313540449026067,-0.9997942219712989,1.0,0.0,0.0,0.0,1.0,0.0,0.0,0.0,1.0,0.0004074007738381624,-0.001346852397546172,0.0009540970204398038,1.2184696791468346e-07,0.0,0.0,0.0,1.2184696791468346e-07,0.0,0.0,0.0,1.2184696791468346e-07,0.11392926424741745,-0.04698004946112513,9.786333084106445,8.999999999999999e-08,0.0,0.0,0.0,8.999999999999999e-08,0.0,0.0,0.0,8.999999999999999e-08
1758875276136502608,35756,1758875276133117440,base_link,0.0009598567731625923,0.006149594147300099,-0.019306249044233656,-0.9997942641181473,1.0,0.0,0.0,0.0,1.0,0.0,0.0,0.0,1.0,-0.0025571954902261496,-0.0020281432662159204,-0.0010642515262588856,1.2184696791468346e-07,0.0,0.0,0.0,1.2184696791468346e-07,0.0,0.0,0.0,1.2184696791468346e-07,0.12261678278446198,-0.07243262231349826,9.791279792785645,8.999999999999999e-08,0.0,0.0,0.0,8.999999999999999e-08,0.0,0.0,0.0,8.999999999999999e-08
1758875276150309872,35757,1758875276143117440,base_link,0.0009461755110092516,0.006134414037846589,-0.019317291518543552,-0.9997941798244502,1.0,0.0,0.0,0.0,1.0,0.0,0.0,0.0,1.0,0.0018091698875650764,0.0012993193231523037,0.0003556436859071253,1.2184696791468346e-07,0.0,0.0,0.0,1.2184696791468346e-07,0.0,0.0,0.0,1.2184696791468346e-07,0.16362038254737854,-0.04395589232444643,9.825702667236328,8.999999999999999e-08,0.0,0.0,0.0,8.999999999999999e-08,0.0,0.0,0.0,8.999999999999999e-08
1758875276154658352,35758,1758875276148117440,base_link,0.0009406269442572433,0.006132185193959322,-0.01931859807084734,-0.9997941376776017,1.0,0.0,0.0,0.0,1.0,0.0,0.0,0.0,1.0,0.00266104843467474,0.002320175059139729,0.0019066402455791829,1.2184696791468346e-07,0.0,0.0,0.0,1.2184696791468346e-07,0.0,0.0,0.0,1.2184696791468346e-07,0.09907184541225433,-0.014303309842942945,9.801737785339355,8.999999999999999e-08,0.0,0.0,0.0,8.999999999999999e-08,0.0,0.0,0.0,8.999999999999999e-08
1758875276166570768,35759,1758875276163117696,base_link,0.0009190311295708387,0.0061260049183880306,-0.019317375812240575,-0.9997942641181472,1.0,0.0,0.0,0.0,1.0,0.0,0.0,0.0,1.0,0.0028779436834156513,-0.0013304825406521559,0.0005925001460127535,1.2184696791468346e-07,0.0,0.0,0.0,1.2184696791468346e-07,0.0,0.0,0.0,1.2184696791468346e-07,0.12552835047245026,-0.022045722231267682,9.797476768493652,8.999999999999999e-08,0.0,0.0,0.0,8.999999999999999e-08,0.0,0.0,0.0,8.999999999999999e-08
1758875276181505200,35760,1758875276178117696,base_link,0.00091887324352505,0.0061406040269493724,-0.019326310944124864,-0.9997940112370562,1.0,0.0,0.0,0.0,1.0,0.0,0.0,0.0,1.0,-0.0013904029037803411,-0.001506363274529576,0.001604283112101257,1.2184696791468346e-07,0.0,0.0,0.0,1.2184696791468346e-07,0.0,0.0,0.0,1.2184696791468346e-07,0.10288678854703903,-0.01765260100364565,9.81393051147461,8.999999999999999e-08,0.0,0.0,0.0,8.999999999999999e-08,0.0,0.0,0.0,8.999999999999999e-08
1758875276190520624,35761,1758875276188117696,base_link,0.0009380946759879227,0.00614758673900364,-0.01930637548477919,-0.9997943062649958,1.0,0.0,0.0,0.0,1.0,0.0,0.0,0.0,1.0,-0.0032450819853693247,-0.0016790295485407118,-0.0029896339401602745,1.2184696791468346e-07,0.0,0.0,0.0,1.2184696791468346e-07,0.0,0.0,0.0,1.2184696791468346e-07,0.10995762050151825,-0.02865552343428015,9.804670333862305,8.999999999999999e-08,0.0,0.0,0.0,8.999999999999999e-08,0.0,0.0,0.0,8.999999999999999e-08
1758875276196564048,35762,1758875276193117696,base_link,0.0009458710988104364,0.006146025000702959,-0.019315352763512043,-0.9997940955307532,1.0,0.0,0.0,0.0,1.0,0.0,0.0,0.0,1.0,-0.004645375534892082,-0.0029889594297856092,-0.0006339784013107416,1.2184696791468346e-07,0.0,0.0,0.0,1.2184696791468346e-07,0.0,0.0,0.0,1.2184696791468346e-07,0.14064344763755798,-0.023611987009643308,9.797260284423828,8.999999999999999e-08,0.0,0.0,0.0,8.999999999999999e-08,0.0,0.0,0.0,8.999999999999999e-08
1758875276210461488,35763,1758875276203117696,base_link,0.0009502435050711877,0.006161568297452621,-0.01929769323398591,-0.9997943905586928,1.0,0.0,0.0,0.0,1.0,0.0,0.0,0.0,1.0,-0.002421319717541337,-0.0006469681393355133,-0.001770257600583136,1.2184696791468346e-07,0.0,0.0,0.0,1.2184696791468346e-07,0.0,0.0,0.0,1.2184696791468346e-07,0.13106562197208405,-0.021436916664241544,9.789825439453125,8.999999999999999e-08,0.0,0.0,0.0,8.999999999999999e-08,0.0,0.0,0.0,8.999999999999999e-08
1758875276214684656,35764,1758875276208117696,base_link,0.0009534967149406222,0.006156953876085187,-0.019299294814229387,-0.9997943905586929,1.0,0.0,0.0,0.0,1.0,0.0,0.0,0.0,1.0,-0.0007592618931084871,-0.0005530219059437514,-0.0012622216017916799,1.2184696791468346e-07,0.0,0.0,0.0,1.2184696791468346e-07,0.0,0.0,0.0,1.2184696791468346e-07,0.09216035157442093,-0.023784752935169927,9.79874038696289,8.999999999999999e-08,0.0,0.0,0.0,8.999999999999999e-08,0.0,0.0,0.0,8.999999999999999e-08
1758875276226542672,35765,1758875276218117696,base_link,0.0009545992830831125,0.006149528622121554,-0.019292509171619163,-0.9997945169992383,1.0,0.0,0.0,0.0,1.0,0.0,0.0,0.0,1.0,0.001286546466872096,0.002376243006438017,-0.0014715649886056783,1.2184696791468346e-07,0.0,0.0,0.0,1.2184696791468346e-07,0.0,0.0,0.0,1.2184696791468346e-07,0.12202807515859604,-0.021838378161190736,9.821200370788574,8.999999999999999e-08,0.0,0.0,0.0,8.999999999999999e-08,0.0,0.0,0.0,8.999999999999999e-08
1758875276233520272,35766,1758875276223117696,base_link,0.0009506458757655652,0.006154333527487923,-0.01929790396822852,-0.9997944327055414,1.0,0.0,0.0,0.0,1.0,0.0,0.0,0.0,1.0,-0.0005504342261701822,0.000608584377914667,-0.0007948764832690359,1.2184696791468346e-07,0.0,0.0,0.0,1.2184696791468346e-07,0.0,0.0,0.0,1.2184696791468346e-07,0.0997183546423912,-0.017714956775306455,9.794021606445312,8.999999999999999e-08,0.0,0.0,0.0,8.999999999999999e-08,0.0,0.0,0.0,8.999999999999999e-08
1758875276236046096,35767,1758875276232117696,base_link,0.000956364017728379,0.0061450790015172415,-0.019295923066348503,-0.999794559146087,1.0,0.0,0.0,0.0,1.0,0.0,0.0,0.0,1.0,-0.0010540226940065622,0.0004547359421849251,2.8755050152540153e-05,1.2184696791468346e-07,0.0,0.0,0.0,1.2184696791468346e-07,0.0,0.0,0.0,1.2184696791468346e-07,0.13023871183395386,-0.06844835728406785,9.814411163330078,8.999999999999999e-08,0.0,0.0,0.0,8.999999999999999e-08,0.0,0.0,0.0,8.999999999999999e-08
