%time,field.header.seq,field.header.stamp,field.header.frame_id,field.orientation.x,field.orientation.y,field.orientation.z,field.orientation.w,field.orientation_covariance0,field.orientation_covariance1,field.orientation_covariance2,field.orientation_covariance3,field.orientation_covariance4,field.orientation_covariance5,field.orientation_covariance6,field.orientation_covariance7,field.orientation_covariance8,field.angular_velocity.x,field.angular_velocity.y,field.angular_velocity.z,field.angular_velocity_covariance0,field.angular_velocity_covariance1,field.angular_velocity_covariance2,field.angular_velocity_covariance3,field.angular_velocity_covariance4,field.angular_velocity_covariance5,field.angular_velocity_covariance6,field.angular_velocity_covariance7,field.angular_velocity_covariance8,field.linear_acceleration.x,field.linear_acceleration.y,field.linear_acceleration.z,field.linear_acceleration_covariance0,field.linear_acceleration_covariance1,field.linear_acceleration_covariance2,field.linear_acceleration_covariance3,field.linear_acceleration_covariance4,field.linear_acceleration_covariance5,field.linear_acceleration_covariance6,field.linear_acceleration_covariance7,field.linear_acceleration_covariance8
1758875467515396528,60772,1758875467460606464,base_link,-0.011349483643572545,0.009208429336847568,-0.0030163656542276113,-0.9998887152056601,1.0,0.0,0.0,0.0,1.0,0.0,0.0,0.0,1.0,-0.002884078538045287,-0.0021190799307078123,-0.0008600573055446146,1.2184696791468346e-07,0.0,0.0,0.0,1.2184696791468346e-07,0.0,0.0,0.0,1.2184696791468346e-07,0.17519107460975647,0.24821361899376035,9.794886589050293,8.999999999999999e-08,0.0,0.0,0.0,8.999999999999999e-08,0.0,0.0,0.0,8.999999999999999e-08
1758875467515416944,60773,1758875467471606464,base_link,-0.011345603910921827,0.009198487537364743,-0.0030038480402198825,-0.9998888416462057,1.0,0.0,0.0,0.0,1.0,0.0,0.0,0.0,1.0,-8.998438715934753e-05,0.0007630756590515372,-0.0023022566456347704,1.2184696791468346e-07,0.0,0.0,0.0,1.2184696791468346e-07,0.0,0.0,0.0,1.2184696791468346e-07,0.18924450874328613,0.20953573286533475,9.809941291809082,8.999999999999999e-08,0.0,0.0,0.0,8.999999999999999e-08,0.0,0.0,0.0,8.999999999999999e-08
1758875467515433680,60774,1758875467475606464,base_link,-0.011335538552025692,0.0092048176318116,-0.003001066348218153,-0.9998889259399028,1.0,0.0,0.0,0.0,1.0,0.0,0.0,0.0,1.0,-0.004778066650032997,-0.0009031414519995452,-0.0012785177677869795,1.2184696791468346e-07,0.0,0.0,0.0,1.2184696791468346e-07,0.0,0.0,0.0,1.2184696791468346e-07,0.17787423729896545,0.22069458663463712,9.804393768310547,8.999999999999999e-08,0.0,0.0,0.0,8.999999999999999e-08,0.0,0.0,0.0,8.999999999999999e-08
1758875467515460880,60775,1758875467486606464,base_link,-0.011338947343035139,0.009200287998049568,-0.0030116452071943735,-0.9998888837930543,1.0,0.0,0.0,0.0,1.0,0.0,0.0,0.0,1.0,0.0011977774556726217,0.0006776077207177881,0.002566045615822077,1.2184696791468346e-07,0.0,0.0,0.0,1.2184696791468346e-07,0.0,0.0,0.0,1.2184696791468346e-07,0.14939063787460327,0.20784521102905393,9.79444408416748,8.999999999999999e-08,0.0,0.0,0.0,8.999999999999999e-08,0.0,0.0,0.0,8.999999999999999e-08
1758875467515489680,60776,1758875467490606464,base_link,-0.011348461664814218,0.009192651845207256,-0.003025595814051479,-0.9998888416462057,1.0,0.0,0.0,0.0,1.0,0.0,0.0,0.0,1.0,0.004361674189567566,0.0007587883155792954,0.002167013706639409,1.2184696791468346e-07,0.0,0.0,0.0,1.2184696791468346e-07,0.0,0.0,0.0,1.2184696791468346e-07,0.174476757645607,0.18972527980804563,9.780707359313965,8.999999999999999e-08,0.0,0.0,0.0,8.999999999999999e-08,0.0,0.0,0.0,8.999999999999999e-08
1758875467522644912,60777,1758875467516606464,base_link,-0.011353485124639174,0.009190560225531838,-0.003004606683493026,-0.9998888416462057,1.0,0.0,0.0,0.0,1.0,0.0,0.0,0.0,1.0,-0.0034295639488846064,-0.0009563129860907795,-0.0021434847731143236,1.2184696791468346e-07,0.0,0.0,0.0,1.2184696791468346e-07,0.0,0.0,0.0,1.2184696791468346e-07,0.17250202596187592,0.19786833226680875,9.789826393127441,8.999999999999999e-08,0.0,0.0,0.0,8.999999999999999e-08,0.0,0.0,0.0,8.999999999999999e-08
1758875467526328048,60778,1758875467520606464,base_link,-0.011355878604653437,0.00919864418863958,-0.0030045645366445148,-0.9998887152056603,1.0,0.0,0.0,0.0,1.0,0.0,0.0,0.0,1.0,-0.0022550898138433695,-0.0016339656431227927,-0.0028238908853381872,1.2184696791468346e-07,0.0,0.0,0.0,1.2184696791468346e-07,0.0,0.0,0.0,1.2184696791468346e-07,0.18863284587860107,0.23996013402938962,9.830739974975586,8.999999999999999e-08,0.0,0.0,0.0,8.999999999999999e-08,0.0,0.0,0.0,8.999999999999999e-08
1758875467534500848,60779,1758875467525606464,base_link,-0.011361575426237806,0.009199216710771207,-0.003000054823853831,-0.9998886730588117,1.0,0.0,0.0,0.0,1.0,0.0,0.0,0.0,1.0,0.00018560164608061314,-0.0027765529230237003,0.002326667774468661,1.2184696791468346e-07,0.0,0.0,0.0,1.2184696791468346e-07,0.0,0.0,0.0,1.2184696791468346e-07,0.17657354474067688,0.24849732220173001,9.814743995666504,8.999999999999999e-08,0.0,0.0,0.0,8.999999999999999e-08,0.0,0.0,0.0,8.999999999999999e-08
1758875467543459760,60780,1758875467535606464,base_link,-0.011359055423359946,0.009206856238654124,-0.0030104229485875514,-0.9998885887651147,1.0,0.0,0.0,0.0,1.0,0.0,0.0,0.0,1.0,-0.0014096000231802464,-0.001477525569498539,-0.0005642302567139266,1.2184696791468346e-07,0.0,0.0,0.0,1.2184696791468346e-07,0.0,0.0,0.0,1.2184696791468346e-07,0.14495478570461273,0.18792608380317807,9.786617279052734,8.999999999999999e-08,0.0,0.0,0.0,8.999999999999999e-08,0.0,0.0,0.0,8.999999999999999e-08
1758875467552626704,60781,1758875467549606464,base_link,-0.011365406838185248,0.00921522197649322,-0.003001361376157729,-0.9998884623245692,1.0,0.0,0.0,0.0,1.0,0.0,0.0,0.0,1.0,0.0033822283148765564,-0.0009186509996652603,-0.00025941524654626835,1.2184696791468346e-07,0.0,0.0,0.0,1.2184696791468346e-07,0.0,0.0,0.0,1.2184696791468346e-07,0.1821586638689041,0.2666328847408307,9.796185493469238,8.999999999999999e-08,0.0,0.0,0.0,8.999999999999999e-08,0.0,0.0,0.0,8.999999999999999e-08
1758875467562480400,60782,1758875467558603392,base_link,-0.011346923469479698,0.009211642787092333,-0.0030134996685288592,-0.9998887152056603,1.0,0.0,0.0,0.0,1.0,0.0,0.0,0.0,1.0,-0.001034300308674574,0.0007017946336418392,0.002015657490119338,1.2184696791468346e-07,0.0,0.0,0.0,1.2184696791468346e-07,0.0,0.0,0.0,1.2184696791468346e-07,0.1579010784626007,0.22101803123951078,9.80330753326416,8.999999999999999e-08,0.0,0.0,0.0,8.999999999999999e-08,0.0,0.0,0.0,8.999999999999999e-08
1758875467572483120,60783,1758875467562603392,base_link,-0.011350673962770723,0.009206538326292896,-0.0030114766198003286,-0.9998887152056603,1.0,0.0,0.0,0.0,1.0,0.0,0.0,0.0,1.0,-0.0004271510988473892,0.00024199089966714388,0.0003971245605498552,1.2184696791468346e-07,0.0,0.0,0.0,1.2184696791468346e-07,0.0,0.0,0.0,1.2184696791468346e-07,0.181596040725708,0.19449080526828885,9.777111053466797,8.999999999999999e-08,0.0,0.0,0.0,8.999999999999999e-08,0.0,0.0,0.0,8.999999999999999e-08
1758875467584805072,60784,1758875467577603392,base_link,-0.011376209766930325,0.009198345950295526,-0.0030331822467834124,-0.9998884201777206,1.0,0.0,0.0,0.0,1.0,0.0,0.0,0.0,1.0,0.004303012043237686,0.00034419959411025074,0.0022098044864833355,1.2184696791468346e-07,0.0,0.0,0.0,1.2184696791468346e-07,0.0,0.0,0.0,1.2184696791468346e-07,0.17716257274150848,0.26383745670318726,9.783060073852539,8.999999999999999e-08,0.0,0.0,0.0,8.999999999999999e-08,0.0,0.0,0.0,8.999999999999999e-08
1758875467592437776,60785,1758875467588603392,base_link,-0.011370648523196537,0.00920150614075321,-0.0030207067796241944,-0.9998885044714176,1.0,0.0,0.0,0.0,1.0,0.0,0.0,0.0,1.0,-0.00032237148843705654,0.00012690504081547255,-0.00042094255331903696,1.2184696791468346e-07,0.0,0.0,0.0,1.2184696791468346e-07,0.0,0.0,0.0,1.2184696791468346e-07,0.17063729465007782,0.21007443964481473,9.837211608886719,8.999999999999999e-08,0.0,0.0,0.0,8.999999999999999e-08,0.0,0.0,0.0,8.999999999999999e-08
1758875467606546832,60786,1758875467592603392,base_link,-0.011378069990529248,0.009198502189980046,-0.0030176300596829425,-0.9998884623245691,1.0,0.0,0.0,0.0,1.0,0.0,0.0,0.0,1.0,0.0016633174382150173,0.0022290365304797888,-0.00021570629905909327,1.2184696791468346e-07,0.0,0.0,0.0,1.2184696791468346e-07,0.0,0.0,0.0,1.2184696791468346e-07,0.16309812664985657,0.2261887639760983,9.7603178024292,8.999999999999999e-08,0.0,0.0,0.0,8.999999999999999e-08,0.0,0.0,0.0,8.999999999999999e-08
1758875467606561520,60787,1758875467601603392,base_link,-0.011386987012439589,0.009197777461749011,-0.0030265651915671755,-0.999888293737175,1.0,0.0,0.0,0.0,1.0,0.0,0.0,0.0,1.0,0.0051049403846263885,0.00023648445494473024,0.003629900049418211,1.2184696791468346e-07,0.0,0.0,0.0,1.2184696791468346e-07,0.0,0.0,0.0,1.2184696791468346e-07,0.16456913948059082,0.2633080780506146,9.81131649017334,8.999999999999999e-08,0.0,0.0,0.0,8.999999999999999e-08,0.0,0.0,0.0,8.999999999999999e-08
1758875467616721584,60788,1758875467612603392,base_link,-0.011377017554087428,0.009194275733645877,-0.003045657713942686,-0.9998884201777206,1.0,0.0,0.0,0.0,1.0,0.0,0.0,0.0,1.0,-0.002249498851597309,0.0013004872016608715,-0.0005688491510227324,1.2184696791468346e-07,0.0,0.0,0.0,1.2184696791468346e-07,0.0,0.0,0.0,1.2184696791468346e-07,0.19321225583553314,0.2249157279729855,9.798332214355469,8.999999999999999e-08,0.0,0.0,0.0,8.999999999999999e-08,0.0,0.0,0.0,8.999999999999999e-08
1758875467626409616,60789,1758875467622603392,base_link,-0.011383081925825314,0.009194434607508427,-0.0030363432604217973,-0.999888378030872,1.0,0.0,0.0,0.0,1.0,0.0,0.0,0.0,1.0,-0.00030435784719884396,-0.002089675050228834,-0.0003835663665086028,1.2184696791468346e-07,0.0,0.0,0.0,1.2184696791468346e-07,0.0,0.0,0.0,1.2184696791468346e-07,0.16284719109535217,0.2663485407829297,9.833367347717285,8.999999999999999e-08,0.0,0.0,0.0,8.999999999999999e-08,0.0,0.0,0.0,8.999999999999999e-08
1758875467637155760,60790,1758875467629603392,base_link,-0.011362298096517252,0.009216877968976606,-0.0030362168198762086,-0.9998884201777206,1.0,0.0,0.0,0.0,1.0,0.0,0.0,0.0,1.0,-0.0020787911489605904,-0.0012126802466809752,-0.0022208779118955135,1.2184696791468346e-07,0.0,0.0,0.0,1.2184696791468346e-07,0.0,0.0,0.0,1.2184696791468346e-07,0.1429833024740219,0.18780931830406308,9.807601928710938,8.999999999999999e-08,0.0,0.0,0.0,8.999999999999999e-08,0.0,0.0,0.0,8.999999999999999e-08
1758875467646749808,60791,1758875467640603392,base_link,-0.011378781877142377,0.009213933863435607,-0.0030298526457510936,-0.9998882937371751,1.0,0.0,0.0,0.0,1.0,0.0,0.0,0.0,1.0,0.002634769305586815,0.00010334863327443589,-0.0009319673990830779,1.2184696791468346e-07,0.0,0.0,0.0,1.2184696791468346e-07,0.0,0.0,0.0,1.2184696791468346e-07,0.1645234376192093,0.21547633409500241,9.796075820922852,8.999999999999999e-08,0.0,0.0,0.0,8.999999999999999e-08,0.0,0.0,0.0,8.999999999999999e-08
1758875467650634512,60792,1758875467644603392,base_link,-0.01137951310850043,0.009213156533961995,-0.003019990283199561,-0.999888293737175,1.0,0.0,0.0,0.0,1.0,0.0,0.0,0.0,1.0,-7.78611283749342e-05,-0.0005577914416790009,0.0003760111867450178,1.2184696791468346e-07,0.0,0.0,0.0,1.2184696791468346e-07,0.0,0.0,0.0,1.2184696791468346e-07,0.1645234376192093,0.21547633409500241,9.796075820922852,8.999999999999999e-08,0.0,0.0,0.0,8.999999999999999e-08,0.0,0.0,0.0,8.999999999999999e-08
1758875467659042832,60793,1758875467649603392,base_link,-0.011385880986938431,0.009210911144143965,-0.0030360903793306745,-0.9998882094434781,1.0,0.0,0.0,0.0,1.0,0.0,0.0,0.0,1.0,-0.0012939851731061935,-0.0012342738918960094,-0.00018841121345758422,1.2184696791468346e-07,0.0,0.0,0.0,1.2184696791468346e-07,0.0,0.0,0.0,1.2184696791468346e-07,0.16217562556266785,0.24957047402858853,9.831982612609863,8.999999999999999e-08,0.0,0.0,0.0,8.999999999999999e-08,0.0,0.0,0.0,8.999999999999999e-08
1758875467664497392,60794,1758875467659604928,base_link,-0.011381290767081664,0.009212618256144783,-0.003025132198717799,-0.999888209443478,1.0,0.0,0.0,0.0,1.0,0.0,0.0,0.0,1.0,0.0017374089220538735,0.001557777402922511,-0.000395743874832988,1.2184696791468346e-07,0.0,0.0,0.0,1.2184696791468346e-07,0.0,0.0,0.0,1.2184696791468346e-07,0.16665112972259521,0.197371691465379,9.764963150024414,8.999999999999999e-08,0.0,0.0,0.0,8.999999999999999e-08,0.0,0.0,0.0,8.999999999999999e-08
1758875467674682896,60795,1758875467670604928,base_link,-0.011376235614802263,0.009213035937998972,-0.0030278295970225626,-0.9998882937371751,1.0,0.0,0.0,0.0,1.0,0.0,0.0,0.0,1.0,-0.001162965316325426,-0.0009243008680641649,0.00149202102329582,1.2184696791468346e-07,0.0,0.0,0.0,1.2184696791468346e-07,0.0,0.0,0.0,1.2184696791468346e-07,0.17858923971652985,0.2521673142910016,9.811689376831055,8.999999999999999e-08,0.0,0.0,0.0,8.999999999999999e-08,0.0,0.0,0.0,8.999999999999999e-08
1758875467681604720,60796,1758875467674604928,base_link,-0.01137660835099378,0.009211618750217792,-0.003062010691164921,-0.9998881672966295,1.0,0.0,0.0,0.0,1.0,0.0,0.0,0.0,1.0,0.0004173610359430313,0.0002890003379434353,0.004774035885930061,1.2184696791468346e-07,0.0,0.0,0.0,1.2184696791468346e-07,0.0,0.0,0.0,1.2184696791468346e-07,0.1847207397222519,0.21917815506458402,9.781559944152832,8.999999999999999e-08,0.0,0.0,0.0,8.999999999999999e-08,0.0,0.0,0.0,8.999999999999999e-08
1758875467689133296,60797,1758875467679604928,base_link,-0.01137653228910311,0.009206259185739574,-0.003056236572918906,-0.9998882094434781,1.0,0.0,0.0,0.0,1.0,0.0,0.0,0.0,1.0,-0.0006831791251897812,0.002735197311267257,0.0021464347373694177,1.2184696791468346e-07,0.0,0.0,0.0,1.2184696791468346e-07,0.0,0.0,0.0,1.2184696791468346e-07,0.1621335744857788,0.16856171190738797,9.817517280578613,8.999999999999999e-08,0.0,0.0,0.0,8.999999999999999e-08,0.0,0.0,0.0,8.999999999999999e-08
1758875467703920976,60798,1758875467694604928,base_link,-0.011367876791680501,0.009202833025618732,-0.003042328112910257,-0.9998884623245691,1.0,0.0,0.0,0.0,1.0,0.0,0.0,0.0,1.0,0.000388608081266284,-0.0005913311615586284,-0.0029267100617289543,1.2184696791468346e-07,0.0,0.0,0.0,1.2184696791468346e-07,0.0,0.0,0.0,1.2184696791468346e-07,0.18084320425987244,0.2357969284057629,9.82706356048584,8.999999999999999e-08,0.0,0.0,0.0,8.999999999999999e-08,0.0,0.0,0.0,8.999999999999999e-08
1758875467713503600,60799,1758875467709604928,base_link,-0.011354489322695784,0.009201262314649128,-0.003019610961562963,-0.9998886730588117,1.0,0.0,0.0,0.0,1.0,0.0,0.0,0.0,1.0,-0.0015333439223468304,-0.0006408090703189376,-0.0029081986285746098,1.2184696791468346e-07,0.0,0.0,0.0,1.2184696791468346e-07,0.0,0.0,0.0,1.2184696791468346e-07,0.17902950942516327,0.23093891143798947,9.809556007385254,8.999999999999999e-08,0.0,0.0,0.0,8.999999999999999e-08,0.0,0.0,0.0,8.999999999999999e-08
1758875467725292368,60800,1758875467719604928,base_link,-0.011341554932332559,0.009204728152076578,-0.003023699205868425,-0.9998887994993572,1.0,0.0,0.0,0.0,1.0,0.0,0.0,0.0,1.0,-0.0034034685231745243,4.225224256515526e-05,0.0018932063831016421,1.2184696791468346e-07,0.0,0.0,0.0,1.2184696791468346e-07,0.0,0.0,0.0,1.2184696791468346e-07,0.14993816614151,0.21962855756282926,9.830214500427246,8.999999999999999e-08,0.0,0.0,0.0,8.999999999999999e-08,0.0,0.0,0.0,8.999999999999999e-08
1758875467734539184,60801,1758875467724604928,base_link,-0.011357116339056192,0.009215089691365178,-0.003036849022603875,-0.9998884623245692,1.0,0.0,0.0,0.0,1.0,0.0,0.0,0.0,1.0,0.0014005615375936031,-0.0019394941627979279,0.0005921095726080241,1.2184696791468346e-07,0.0,0.0,0.0,1.2184696791468346e-07,0.0,0.0,0.0,1.2184696791468346e-07,0.1373215764760971,0.20145244896412015,9.851058959960938,8.999999999999999e-08,0.0,0.0,0.0,8.999999999999999e-08,0.0,0.0,0.0,8.999999999999999e-08
1758875467742549808,60802,1758875467734604928,base_link,-0.011357661696226864,0.009213627640239393,-0.0030259751356880218,-0.9998885466182661,1.0,0.0,0.0,0.0,1.0,0.0,0.0,0.0,1.0,0.0011279894970357418,-0.00041032698936760415,0.0008295612642541528,1.2184696791468346e-07,0.0,0.0,0.0,1.2184696791468346e-07,0.0,0.0,0.0,1.2184696791468346e-07,0.20595583319664001,0.20552946627140165,9.822293281555176,8.999999999999999e-08,0.0,0.0,0.0,8.999999999999999e-08,0.0,0.0,0.0,8.999999999999999e-08
1758875467752632656,60803,1758875467746604928,base_link,-0.011333276040050454,0.009232764696687181,-0.003034278064844756,-0.9998885887651147,1.0,0.0,0.0,0.0,1.0,0.0,0.0,0.0,1.0,-0.0007178874220699072,-0.002011530101299286,0.0013534282334148886,1.2184696791468346e-07,0.0,0.0,0.0,1.2184696791468346e-07,0.0,0.0,0.0,1.2184696791468346e-07,0.15828852355480194,0.18417483568191648,9.793434143066406,8.999999999999999e-08,0.0,0.0,0.0,8.999999999999999e-08,0.0,0.0,0.0,8.999999999999999e-08
1758875467762492976,60804,1758875467757601344,base_link,-0.01135978764253476,0.009214533632846252,-0.003028756827689751,-0.9998884623245691,1.0,0.0,0.0,0.0,1.0,0.0,0.0,0.0,1.0,0.00410888297483325,0.0020034373737871647,-0.00047111709136515883,1.2184696791468346e-07,0.0,0.0,0.0,1.2184696791468346e-07,0.0,0.0,0.0,1.2184696791468346e-07,0.17931480705738068,0.2395699769258511,9.8385591506958,8.999999999999999e-08,0.0,0.0,0.0,8.999999999999999e-08,0.0,0.0,0.0,8.999999999999999e-08
1758875467765642512,60805,1758875467761601344,base_link,-0.011354212075457924,0.00921463010961667,-0.0030360060856336538,-0.9998884623245692,1.0,0.0,0.0,0.0,1.0,0.0,0.0,0.0,1.0,0.00303851836360991,0.0019846661016345024,0.0007382590556517241,1.2184696791468346e-07,0.0,0.0,0.0,1.2184696791468346e-07,0.0,0.0,0.0,1.2184696791468346e-07,0.18502405285835266,0.22583326697349668,9.810857772827148,8.999999999999999e-08,0.0,0.0,0.0,8.999999999999999e-08,0.0,0.0,0.0,8.999999999999999e-08
1758875467777438928,60806,1758875467770601344,base_link,-0.01135368178249287,0.0092176417982878,-0.0030253007861118448,-0.9998885466182661,1.0,0.0,0.0,0.0,1.0,0.0,0.0,0.0,1.0,-0.0008706741500645876,-0.002155894413590431,-0.0003276061033830044,1.2184696791468346e-07,0.0,0.0,0.0,1.2184696791468346e-07,0.0,0.0,0.0,1.2184696791468346e-07,0.17753329873085022,0.22073589265346646,9.83591365814209,8.999999999999999e-08,0.0,0.0,0.0,8.999999999999999e-08,0.0,0.0,0.0,8.999999999999999e-08
1758875467792517776,60807,1758875467782601344,base_link,-0.011359023483951309,0.00921424016894988,-0.003016365654227611,-0.9998885466182661,1.0,0.0,0.0,0.0,1.0,0.0,0.0,0.0,1.0,0.0001973926555365324,0.001732052303850651,0.0016661086119711397,1.2184696791468346e-07,0.0,0.0,0.0,1.2184696791468346e-07,0.0,0.0,0.0,1.2184696791468346e-07,0.1861177533864975,0.2576437294483197,9.80296802520752,8.999999999999999e-08,0.0,0.0,0.0,8.999999999999999e-08,0.0,0.0,0.0,8.999999999999999e-08
1758875467796500592,60808,1758875467791601344,base_link,-0.011355829872359847,0.009223044579749356,-0.0030418644975766353,-0.9998884201777206,1.0,0.0,0.0,0.0,1.0,0.0,0.0,0.0,1.0,0.0004748990759253502,-7.56343360990282e-05,0.0032275361008942127,1.2184696791468346e-07,0.0,0.0,0.0,1.2184696791468346e-07,0.0,0.0,0.0,1.2184696791468346e-07,0.16757310926914215,0.22737622261047483,9.805991172790527,8.999999999999999e-08,0.0,0.0,0.0,8.999999999999999e-08,0.0,0.0,0.0,8.999999999999999e-08
1758875467800474832,60809,1758875467796601344,base_link,-0.011356706642054163,0.009219174066721752,-0.003025932988839566,-0.9998885044714176,1.0,0.0,0.0,0.0,1.0,0.0,0.0,0.0,1.0,0.0017865279223769903,0.0008372985757887365,0.0005160323344171046,1.2184696791468346e-07,0.0,0.0,0.0,1.2184696791468346e-07,0.0,0.0,0.0,1.2184696791468346e-07,0.1903272569179535,0.1922464668750775,9.801753997802734,8.999999999999999e-08,0.0,0.0,0.0,8.999999999999999e-08,0.0,0.0,0.0,8.999999999999999e-08
1758875467810434288,60810,1758875467806601344,base_link,-0.011361162930421618,0.009218877145466715,-0.0030242471148990676,-0.9998884201777206,1.0,0.0,0.0,0.0,1.0,0.0,0.0,0.0,1.0,-0.00028531718999147415,4.193326458334917e-05,-0.0004984429106116295,1.2184696791468346e-07,0.0,0.0,0.0,1.2184696791468346e-07,0.0,0.0,0.0,1.2184696791468346e-07,0.19873641431331635,0.2937051653862012,9.782807350158691,8.999999999999999e-08,0.0,0.0,0.0,8.999999999999999e-08,0.0,0.0,0.0,8.999999999999999e-08
1758875467823951632,60811,1758875467817601344,base_link,-0.011350399678983148,0.009229438882285742,-0.0030289254150837955,-0.9998884623245691,1.0,0.0,0.0,0.0,1.0,0.0,0.0,0.0,1.0,-0.0020793615840375423,-0.0014581382274627683,0.0013711958890780809,1.2184696791468346e-07,0.0,0.0,0.0,1.2184696791468346e-07,0.0,0.0,0.0,1.2184696791468346e-07,0.1564619243144989,0.24634666740894437,9.774813652038574,8.999999999999999e-08,0.0,0.0,0.0,8.999999999999999e-08,0.0,0.0,0.0,8.999999999999999e-08
1758875467830495216,60812,1758875467821601344,base_link,-0.011351875806497791,0.009223821826904902,-0.0030287989745383177,-0.9998885044714176,1.0,0.0,0.0,0.0,1.0,0.0,0.0,0.0,1.0,-0.0018075075931847095,0.0016068682307377455,-0.0020271772518754005,1.2184696791468346e-07,0.0,0.0,0.0,1.2184696791468346e-07,0.0,0.0,0.0,1.2184696791468346e-07,0.2029091864824295,0.2178846001625073,9.764548301696777,8.999999999999999e-08,0.0,0.0,0.0,8.999999999999999e-08,0.0,0.0,0.0,8.999999999999999e-08
1758875467833826064,60813,1758875467830601344,base_link,-0.011359141116464046,0.009210314832091986,-0.0030123195567705492,-0.9998885466182662,1.0,0.0,0.0,0.0,1.0,0.0,0.0,0.0,1.0,-0.0015161209739744663,0.00013830582611262766,-0.0025954628363251686,1.2184696791468346e-07,0.0,0.0,0.0,1.2184696791468346e-07,0.0,0.0,0.0,1.2184696791468346e-07,0.1626633256673813,0.20796363055706144,9.767438888549805,8.999999999999999e-08,0.0,0.0,0.0,8.999999999999999e-08,0.0,0.0,0.0,8.999999999999999e-08
1758875467841434864,60814,1758875467832601344,base_link,-0.011335357452285998,0.00922143073411448,-0.0030125724378615606,-0.9998887152056601,1.0,0.0,0.0,0.0,1.0,0.0,0.0,0.0,1.0,-0.004727487917989492,-0.001973085105419159,0.0005007793079130354,1.2184696791468346e-07,0.0,0.0,0.0,1.2184696791468346e-07,0.0,0.0,0.0,1.2184696791468346e-07,0.19413360953330994,0.24995873868465543,9.804255485534668,8.999999999999999e-08,0.0,0.0,0.0,8.999999999999999e-08,0.0,0.0,0.0,8.999999999999999e-08
1758875467850560528,60815,1758875467841601344,base_link,-0.011326593953564081,0.009216837633125492,-0.003015059101923769,-0.9998888416462057,1.0,0.0,0.0,0.0,1.0,0.0,0.0,0.0,1.0,0.0041918642818927765,0.0022636847570538516,-0.0035175881348550324,1.2184696791468346e-07,0.0,0.0,0.0,1.2184696791468346e-07,0.0,0.0,0.0,1.2184696791468346e-07,0.16286256909370422,0.2288084030151379,9.79992961883545,8.999999999999999e-08,0.0,0.0,0.0,8.999999999999999e-08,0.0,0.0,0.0,8.999999999999999e-08
1758875467858345904,60816,1758875467850601344,base_link,-0.011335031143482293,0.009215291452938812,-0.003020664632775684,-0.9998887152056603,1.0,0.0,0.0,0.0,1.0,0.0,0.0,0.0,1.0,0.0034247187431901693,0.0023391533177345987,-0.0033837277442216878,1.2184696791468346e-07,0.0,0.0,0.0,1.2184696791468346e-07,0.0,0.0,0.0,1.2184696791468346e-07,0.15210944414138794,0.21106112003326535,9.81552505493164,8.999999999999999e-08,0.0,0.0,0.0,8.999999999999999e-08,0.0,0.0,0.0,8.999999999999999e-08
1758875467867283120,60817,1758875467856599296,base_link,-0.011347753235559756,0.009203976011930399,-0.00299659878227598,-0.9998888416462057,1.0,0.0,0.0,0.0,1.0,0.0,0.0,0.0,1.0,0.0011319891782477498,0.0004468855913728477,0.0013542952947318554,1.2184696791468346e-07,0.0,0.0,0.0,1.2184696791468346e-07,0.0,0.0,0.0,1.2184696791468346e-07,0.1539040207862854,0.253430098295213,9.815735816955566,8.999999999999999e-08,0.0,0.0,0.0,8.999999999999999e-08,0.0,0.0,0.0,8.999999999999999e-08
1758875467874129392,60818,1758875467866599296,base_link,-0.011345514348868742,0.009202720661462056,-0.0030157334514998905,-0.9998887573525087,1.0,0.0,0.0,0.0,1.0,0.0,0.0,0.0,1.0,7.010693661868572e-05,-0.0009914771653711794,0.0014367289841175082,1.2184696791468346e-07,0.0,0.0,0.0,1.2184696791468346e-07,0.0,0.0,0.0,1.2184696791468346e-07,0.1594240814447403,0.18953457474708676,9.799960136413574,8.999999999999999e-08,0.0,0.0,0.0,8.999999999999999e-08,0.0,0.0,0.0,8.999999999999999e-08
1758875467883628464,60819,1758875467879599296,base_link,-0.011344227552900144,0.009204440779716907,-0.002995376523669215,-0.9998887994993572,1.0,0.0,0.0,0.0,1.0,0.0,0.0,0.0,1.0,0.000442620599642396,-0.0005106497555971143,0.0016870906110852957,1.2184696791468346e-07,0.0,0.0,0.0,1.2184696791468346e-07,0.0,0.0,0.0,1.2184696791468346e-07,0.18928077816963196,0.23180925846099973,9.821816444396973,8.999999999999999e-08,0.0,0.0,0.0,8.999999999999999e-08,0.0,0.0,0.0,8.999999999999999e-08
1758875467898658064,60820,1758875467885599296,base_link,-0.01135677224955077,0.009205660980372137,-0.003012488144164538,-0.9998886309119631,1.0,0.0,0.0,0.0,1.0,0.0,0.0,0.0,1.0,0.0006227425765246153,0.0030894854571670294,-0.00149035023059696,1.2184696791468346e-07,0.0,0.0,0.0,1.2184696791468346e-07,0.0,0.0,0.0,1.2184696791468346e-07,0.21568512916564941,0.23304374516010404,9.800660133361816,8.999999999999999e-08,0.0,0.0,0.0,8.999999999999999e-08,0.0,0.0,0.0,8.999999999999999e-08
1758875467900638352,60821,1758875467896599296,base_link,-0.011351062174758179,0.009197283471049962,-0.002997273131852157,-0.9998888416462057,1.0,0.0,0.0,0.0,1.0,0.0,0.0,0.0,1.0,-0.0009012059308588505,-8.375896140933082e-05,-0.0035967337898910046,1.2184696791468346e-07,0.0,0.0,0.0,1.2184696791468346e-07,0.0,0.0,0.0,1.2184696791468346e-07,0.21320973336696625,0.22142522037029386,9.800639152526855,8.999999999999999e-08,0.0,0.0,0.0,8.999999999999999e-08,0.0,0.0,0.0,8.999999999999999e-08
1758875467907276432,60822,1758875467900599296,base_link,-0.011354968331507278,0.009189343070644958,-0.002998411096761956,-0.9998888837930543,1.0,0.0,0.0,0.0,1.0,0.0,0.0,0.0,1.0,0.0009464705362915993,0.0012631108984351156,-0.0009053783724084498,1.2184696791468346e-07,0.0,0.0,0.0,1.2184696791468346e-07,0.0,0.0,0.0,1.2184696791468346e-07,0.20076952874660492,0.23454299569130063,9.793242454528809,8.999999999999999e-08,0.0,0.0,0.0,8.999999999999999e-08,0.0,0.0,0.0,8.999999999999999e-08
1758875467918776944,60823,1758875467911599296,base_link,-0.011374099296418366,0.009193689217443454,-0.003011013004466706,-0.9998885044714176,1.0,0.0,0.0,0.0,1.0,0.0,0.0,0.0,1.0,0.003424491034820676,0.000979458447545767,0.0016753172967582939,1.2184696791468346e-07,0.0,0.0,0.0,1.2184696791468346e-07,0.0,0.0,0.0,1.2184696791468346e-07,0.15141470730304718,0.19136367738247037,9.80125904083252,8.999999999999999e-08,0.0,0.0,0.0,8.999999999999999e-08,0.0,0.0,0.0,8.999999999999999e-08
1758875467934664784,60824,1758875467926599296,base_link,-0.01136537300546115,0.009181841260882274,-0.0030201167237450407,-0.9998887573525087,1.0,0.0,0.0,0.0,1.0,0.0,0.0,0.0,1.0,-0.002682481426745653,-9.117438457906208e-05,0.003055911511182785,1.2184696791468346e-07,0.0,0.0,0.0,1.2184696791468346e-07,0.0,0.0,0.0,1.2184696791468346e-07,0.19319498538970947,0.2558786273002637,9.791369438171387,8.999999999999999e-08,0.0,0.0,0.0,8.999999999999999e-08,0.0,0.0,0.0,8.999999999999999e-08
1758875467942516688,60825,1758875467930599296,base_link,-0.011360961580438303,0.009178134149210712,-0.003033055806237936,-0.9998887994993572,1.0,0.0,0.0,0.0,1.0,0.0,0.0,0.0,1.0,-0.0012266947887837887,0.0008923078421503307,0.0004899012856185435,1.2184696791468346e-07,0.0,0.0,0.0,1.2184696791468346e-07,0.0,0.0,0.0,1.2184696791468346e-07,0.16814081370830536,0.19999077916145444,9.817230224609375,8.999999999999999e-08,0.0,0.0,0.0,8.999999999999999e-08,0.0,0.0,0.0,8.999999999999999e-08
1758875467952547792,60826,1758875467945599296,base_link,-0.01133445310604041,0.009194270547607877,-0.0030273238348404326,-0.9998889680867513,1.0,0.0,0.0,0.0,1.0,0.0,0.0,0.0,1.0,-0.004231196828186512,-0.0022638626396656036,-0.001591327250935137,1.2184696791468346e-07,0.0,0.0,0.0,1.2184696791468346e-07,0.0,0.0,0.0,1.2184696791468346e-07,0.21213127672672272,0.2618982195854199,9.803406715393066,8.999999999999999e-08,0.0,0.0,0.0,8.999999999999999e-08,0.0,0.0,0.0,8.999999999999999e-08
1758875467962467152,60827,1758875467956597248,base_link,-0.011324152729072988,0.009189384888221217,-0.003022476947261661,-0.9998890945272968,1.0,0.0,0.0,0.0,1.0,0.0,0.0,0.0,1.0,-0.0012405174784362316,-0.0011055641807615753,0.0030484162271022797,1.2184696791468346e-07,0.0,0.0,0.0,1.2184696791468346e-07,0.0,0.0,0.0,1.2184696791468346e-07,0.18100059032440186,0.18125462532043576,9.805129051208496,8.999999999999999e-08,0.0,0.0,0.0,8.999999999999999e-08,0.0,0.0,0.0,8.999999999999999e-08
1758875467972587024,60828,1758875467960597248,base_link,-0.011331131160587954,0.009192067304638356,-0.0030231091499893824,-0.9998890523804482,1.0,0.0,0.0,0.0,1.0,0.0,0.0,0.0,1.0,0.00029153283685445786,0.0005778791382908819,-0.002049129456281662,1.2184696791468346e-07,0.0,0.0,0.0,1.2184696791468346e-07,0.0,0.0,0.0,1.2184696791468346e-07,0.15210624039173126,0.1890285313129437,9.810300827026367,8.999999999999999e-08,0.0,0.0,0.0,8.999999999999999e-08,0.0,0.0,0.0,8.999999999999999e-08
1758875467975656496,60829,1758875467971597248,base_link,-0.011327251098664984,0.009190934525766564,-0.0030141318712565267,-0.9998890945272968,1.0,0.0,0.0,0.0,1.0,0.0,0.0,0.0,1.0,-0.0009294254705309868,0.0009204004891216752,-0.0027905479073524475,1.2184696791468346e-07,0.0,0.0,0.0,1.2184696791468346e-07,0.0,0.0,0.0,1.2184696791468346e-07,0.21252505481243134,0.24592845141887784,9.781393051147461,8.999999999999999e-08,0.0,0.0,0.0,8.999999999999999e-08,0.0,0.0,0.0,8.999999999999999e-08
1758875467981501904,60830,1758875467975597248,base_link,-0.011326742619986757,0.009196021205864284,-0.0030262701636276563,-0.9998890102335998,1.0,0.0,0.0,0.0,1.0,0.0,0.0,0.0,1.0,-0.0005420155357569456,-0.0014916956424713133,0.0017848267452791335,1.2184696791468346e-07,0.0,0.0,0.0,1.2184696791468346e-07,0.0,0.0,0.0,1.2184696791468346e-07,0.18901307880878448,0.2355489581823361,9.80825138092041,8.999999999999999e-08,0.0,0.0,0.0,8.999999999999999e-08,0.0,0.0,0.0,8.999999999999999e-08
1758875467990516272,60831,1758875467980597248,base_link,-0.011327749040631082,0.009183374352496857,-0.003030316261084663,-0.9998890945272968,1.0,0.0,0.0,0.0,1.0,0.0,0.0,0.0,1.0,0.0019052179995924234,0.0004547466523945333,0.0013181025860831141,1.2184696791468346e-07,0.0,0.0,0.0,1.2184696791468346e-07,0.0,0.0,0.0,1.2184696791468346e-07,0.12821577489376068,0.1921609640121472,9.774429321289062,8.999999999999999e-08,0.0,0.0,0.0,8.999999999999999e-08,0.0,0.0,0.0,8.999999999999999e-08
1758875467996510320,60832,1758875467991597248,base_link,-0.011332704176463334,0.00918139452075167,-0.003005196739372238,-0.9998891788209938,1.0,0.0,0.0,0.0,1.0,0.0,0.0,0.0,1.0,-0.001512611284852028,0.0012818526010960336,-0.003033698070794344,1.2184696791468346e-07,0.0,0.0,0.0,1.2184696791468346e-07,0.0,0.0,0.0,1.2184696791468346e-07,0.21773383021354675,0.24847473204136014,9.820219039916992,8.999999999999999e-08,0.0,0.0,0.0,8.999999999999999e-08,0.0,0.0,0.0,8.999999999999999e-08
1758875468005513040,60833,1758875467999597248,base_link,-0.01132643318638607,0.009200300345759093,-0.003011898088285385,-0.9998890523804482,1.0,0.0,0.0,0.0,1.0,0.0,0.0,0.0,1.0,0.0015895883552730083,-0.0009812079370021822,-0.0010451915441080926,1.2184696791468346e-07,0.0,0.0,0.0,1.2184696791468346e-07,0.0,0.0,0.0,1.2184696791468346e-07,0.1753392070531845,0.23334865272045255,9.812524795532227,8.999999999999999e-08,0.0,0.0,0.0,8.999999999999999e-08,0.0,0.0,0.0,8.999999999999999e-08
1758875468013420816,60834,1758875468004597248,base_link,-0.01133496825248178,0.009189310225737624,-0.0030153962767118583,-0.9998890102335997,1.0,0.0,0.0,0.0,1.0,0.0,0.0,0.0,1.0,0.006016255356371403,0.00045057735405862353,0.0016690464690327644,1.2184696791468346e-07,0.0,0.0,0.0,1.2184696791468346e-07,0.0,0.0,0.0,1.2184696791468346e-07,0.15225230157375336,0.17013347148895383,9.781670570373535,8.999999999999999e-08,0.0,0.0,0.0,8.999999999999999e-08,0.0,0.0,0.0,8.999999999999999e-08
1758875468030438096,60835,1758875468019597248,base_link,-0.011360546203489892,0.00919515670156143,-0.003013373227983326,-0.9998886730588117,1.0,0.0,0.0,0.0,1.0,0.0,0.0,0.0,1.0,0.0026544907595962286,0.00043223612010478995,0.0018690377473831177,1.2184696791468346e-07,0.0,0.0,0.0,1.2184696791468346e-07,0.0,0.0,0.0,1.2184696791468346e-07,0.20874634385108948,0.2180398404598248,9.781081199645996,8.999999999999999e-08,0.0,0.0,0.0,8.999999999999999e-08,0.0,0.0,0.0,8.999999999999999e-08
1758875468042673264,60836,1758875468034597248,base_link,-0.011359878439358798,0.009189566975777674,-0.0030145111928931248,-0.9998887152056603,1.0,0.0,0.0,0.0,1.0,0.0,0.0,0.0,1.0,0.0011619378346949816,-0.000559049192816019,0.001150921336375177,1.2184696791468346e-07,0.0,0.0,0.0,1.2184696791468346e-07,0.0,0.0,0.0,1.2184696791468346e-07,0.15477558970451355,0.20662634074688077,9.81008529663086,8.999999999999999e-08,0.0,0.0,0.0,8.999999999999999e-08,0.0,0.0,0.0,8.999999999999999e-08
1758875468054772720,60837,1758875468044597248,base_link,-0.01136333777365923,0.009184620647978214,-0.00301868373089572,-0.9998887573525087,1.0,0.0,0.0,0.0,1.0,0.0,0.0,0.0,1.0,-0.0002582117449492216,0.0029364719521254305,0.0023160916753113265,1.2184696791468346e-07,0.0,0.0,0.0,1.2184696791468346e-07,0.0,0.0,0.0,1.2184696791468346e-07,0.17189471423625946,0.282242536544801,9.804780006408691,8.999999999999999e-08,0.0,0.0,0.0,8.999999999999999e-08,0.0,0.0,0.0,8.999999999999999e-08
1758875468058629552,60838,1758875468049597248,base_link,-0.011359756690942885,0.009180386124473822,-0.003047849350065263,-0.9998887573525087,1.0,0.0,0.0,0.0,1.0,0.0,0.0,0.0,1.0,-0.00216568261384964,0.0015887984773144128,0.0016059526242315767,1.2184696791468346e-07,0.0,0.0,0.0,1.2184696791468346e-07,0.0,0.0,0.0,1.2184696791468346e-07,0.16370117664337158,0.2202605903148663,9.82296371459961,8.999999999999999e-08,0.0,0.0,0.0,8.999999999999999e-08,0.0,0.0,0.0,8.999999999999999e-08
1758875468065017776,60839,1758875468059599552,base_link,-0.011369314723613681,0.009188129373116747,-0.00302209762562506,-0.9998886309119632,1.0,0.0,0.0,0.0,1.0,0.0,0.0,0.0,1.0,0.002279917011037469,-0.001733064651489258,-0.0010763738537207244,1.2184696791468346e-07,0.0,0.0,0.0,1.2184696791468346e-07,0.0,0.0,0.0,1.2184696791468346e-07,0.18418729305267334,0.22325940430164457,9.831555366516113,8.999999999999999e-08,0.0,0.0,0.0,8.999999999999999e-08,0.0,0.0,0.0,8.999999999999999e-08
1758875468078051536,60840,1758875468068599552,base_link,-0.011380879917626747,0.009180055782085006,-0.0030223926535646924,-0.9998885887651147,1.0,0.0,0.0,0.0,1.0,0.0,0.0,0.0,1.0,0.0004627108573913574,0.0006568089593201875,-0.0012850050115957856,1.2184696791468346e-07,0.0,0.0,0.0,1.2184696791468346e-07,0.0,0.0,0.0,1.2184696791468346e-07,0.20053620636463165,0.22132955491542936,9.791509628295898,8.999999999999999e-08,0.0,0.0,0.0,8.999999999999999e-08,0.0,0.0,0.0,8.999999999999999e-08
1758875468091543312,60841,1758875468086599552,base_link,-0.011369560278397096,0.009183122541540618,-0.0030117295008913396,-0.9998887152056601,1.0,0.0,0.0,0.0,1.0,0.0,0.0,0.0,1.0,0.0016288572223857045,0.0014664391055703163,-0.00041389104444533603,1.2184696791468346e-07,0.0,0.0,0.0,1.2184696791468346e-07,0.0,0.0,0.0,1.2184696791468346e-07,0.18562699854373932,0.21347422897815824,9.784220695495605,8.999999999999999e-08,0.0,0.0,0.0,8.999999999999999e-08,0.0,0.0,0.0,8.999999999999999e-08
1758875468102815504,60842,1758875468092599552,base_link,-0.011378314145905583,0.009193421683737086,-0.0030216340102914934,-0.9998885044714176,1.0,0.0,0.0,0.0,1.0,0.0,0.0,0.0,1.0,-0.0037407074123620987,-0.004405704792588949,2.756365574896875e-06,1.2184696791468346e-07,0.0,0.0,0.0,1.2184696791468346e-07,0.0,0.0,0.0,1.2184696791468346e-07,0.1946491301059723,0.25201502442360046,9.81790828704834,8.999999999999999e-08,0.0,0.0,0.0,8.999999999999999e-08,0.0,0.0,0.0,8.999999999999999e-08
1758875468111632336,60843,1758875468101599552,base_link,-0.011346575181753039,0.009220189953943378,-0.003000054823853831,-0.9998886730588117,1.0,0.0,0.0,0.0,1.0,0.0,0.0,0.0,1.0,-0.0043486012145876884,-0.004184278193861246,-0.0032721855677664276,1.2184696791468346e-07,0.0,0.0,0.0,1.2184696791468346e-07,0.0,0.0,0.0,1.2184696791468346e-07,0.17256313562393188,0.21397069096565366,9.819134712219238,8.999999999999999e-08,0.0,0.0,0.0,8.999999999999999e-08,0.0,0.0,0.0,8.999999999999999e-08
1758875468114663408,60844,1758875468106599552,base_link,-0.011347271180979912,0.009212197281568055,-0.0030064189979790014,-0.9998887152056603,1.0,0.0,0.0,0.0,1.0,0.0,0.0,0.0,1.0,0.0009523052722215652,-0.0030015204101800923,-0.003387595526874065,1.2184696791468346e-07,0.0,0.0,0.0,1.2184696791468346e-07,0.0,0.0,0.0,1.2184696791468346e-07,0.22238679230213165,0.20802284777164579,9.81141185760498,8.999999999999999e-08,0.0,0.0,0.0,8.999999999999999e-08,0.0,0.0,0.0,8.999999999999999e-08
1758875468124626992,60845,1758875468121599552,base_link,-0.011331866590167244,0.00922950901727584,-0.002999633355368721,-0.9998887573525087,1.0,0.0,0.0,0.0,1.0,0.0,0.0,0.0,1.0,-0.00324365496635437,-0.0022338363341987133,-0.0012270055012777446,1.2184696791468346e-07,0.0,0.0,0.0,1.2184696791468346e-07,0.0,0.0,0.0,1.2184696791468346e-07,0.1767558604478836,0.20120444893837094,9.801942825317383,8.999999999999999e-08,0.0,0.0,0.0,8.999999999999999e-08,0.0,0.0,0.0,8.999999999999999e-08
1758875468134697328,60846,1758875468130599552,base_link,-0.011326044727444423,0.009229377637646499,-0.0029841233151167066,-0.9998888416462057,1.0,0.0,0.0,0.0,1.0,0.0,0.0,0.0,1.0,-0.002882852219045162,0.00224756496027112,-0.0013774827821180227,1.2184696791468346e-07,0.0,0.0,0.0,1.2184696791468346e-07,0.0,0.0,0.0,1.2184696791468346e-07,0.2087630182504654,0.2034909576177609,9.791251182556152,8.999999999999999e-08,0.0,0.0,0.0,8.999999999999999e-08,0.0,0.0,0.0,8.999999999999999e-08
1758875468142666544,60847,1758875468136599552,base_link,-0.01132582765471098,0.009211601957332838,-0.002977464113052015,-0.9998890102335998,1.0,0.0,0.0,0.0,1.0,0.0,0.0,0.0,1.0,-0.00037524825893342495,0.0012448205379769204,-0.0022104429081082344,1.2184696791468346e-07,0.0,0.0,0.0,1.2184696791468346e-07,0.0,0.0,0.0,1.2184696791468346e-07,0.14634858071804047,0.2595011889934552,9.816641807556152,8.999999999999999e-08,0.0,0.0,0.0,8.999999999999999e-08,0.0,0.0,0.0,8.999999999999999e-08
1758875468152984368,60848,1758875468146599552,base_link,-0.011337373010070742,0.009199596937906503,-0.0029810044483269444,-0.9998890102335998,1.0,0.0,0.0,0.0,1.0,0.0,0.0,0.0,1.0,0.002753176726400852,0.00219098012894392,0.00047975807683542344,1.2184696791468346e-07,0.0,0.0,0.0,1.2184696791468346e-07,0.0,0.0,0.0,1.2184696791468346e-07,0.15027055144309998,0.21122244000434995,9.78955364227295,8.999999999999999e-08,0.0,0.0,0.0,8.999999999999999e-08,0.0,0.0,0.0,8.999999999999999e-08
1758875468169657328,60849,1758875468161596224,base_link,-0.011349915813405907,0.009192032731051687,-0.0029673910162578716,-0.9998889680867512,1.0,0.0,0.0,0.0,1.0,0.0,0.0,0.0,1.0,0.0017682493198662996,-0.001403268426656723,0.0007077564368955793,1.2184696791468346e-07,0.0,0.0,0.0,1.2184696791468346e-07,0.0,0.0,0.0,1.2184696791468346e-07,0.1494806706905365,0.21940810978412748,9.823953628540039,8.999999999999999e-08,0.0,0.0,0.0,8.999999999999999e-08,0.0,0.0,0.0,8.999999999999999e-08
1758875468174565456,60850,1758875468165596224,base_link,-0.011355166224131926,0.009200138920036575,-0.0029791921338409677,-0.9998887994993573,1.0,0.0,0.0,0.0,1.0,0.0,0.0,0.0,1.0,0.00019113370217382908,0.0008102634456008676,0.0025972172152251005,1.2184696791468346e-07,0.0,0.0,0.0,1.2184696791468346e-07,0.0,0.0,0.0,1.2184696791468346e-07,0.17785881459712982,0.18354949355125547,9.78893756866455,8.999999999999999e-08,0.0,0.0,0.0,8.999999999999999e-08,0.0,0.0,0.0,8.999999999999999e-08
1758875468182604048,60851,1758875468176596224,base_link,-0.011350280317791075,0.009198023181168552,-0.0029699198271685903,-0.9998888837930543,1.0,0.0,0.0,0.0,1.0,0.0,0.0,0.0,1.0,-0.0006131674163043499,-0.0014017610810697079,-0.0007726255571469662,1.2184696791468346e-07,0.0,0.0,0.0,1.2184696791468346e-07,0.0,0.0,0.0,1.2184696791468346e-07,0.19521184265613556,0.20301806926727414,9.7906494140625,8.999999999999999e-08,0.0,0.0,0.0,8.999999999999999e-08,0.0,0.0,0.0,8.999999999999999e-08
1758875468185580496,60852,1758875468180596224,base_link,-0.011351317278436959,0.009195999720849711,-0.0029827324691158418,-0.9998888837930542,1.0,0.0,0.0,0.0,1.0,0.0,0.0,0.0,1.0,0.0005648608785122633,5.185743793845179e-05,0.00019187107682228088,1.2184696791468346e-07,0.0,0.0,0.0,1.2184696791468346e-07,0.0,0.0,0.0,1.2184696791468346e-07,0.20771852135658264,0.23235252499580503,9.81210994720459,8.999999999999999e-08,0.0,0.0,0.0,8.999999999999999e-08,0.0,0.0,0.0,8.999999999999999e-08
1758875468196503376,60853,1758875468191596224,base_link,-0.011347917295460306,0.009197695390639703,-0.0029901081676053324,-0.9998888416462057,1.0,0.0,0.0,0.0,1.0,0.0,0.0,0.0,1.0,-0.0008122413419187069,0.00043873162940144566,0.002209997270256281,1.2184696791468346e-07,0.0,0.0,0.0,1.2184696791468346e-07,0.0,0.0,0.0,1.2184696791468346e-07,0.1748294234275818,0.23963458836078763,9.8224515914917,8.999999999999999e-08,0.0,0.0,0.0,8.999999999999999e-08,0.0,0.0,0.0,8.999999999999999e-08
1758875468207489328,60854,1758875468195596224,base_link,-0.011342346255876963,0.009204659910401938,-0.002987537209846158,-0.9998888837930542,1.0,0.0,0.0,0.0,1.0,0.0,0.0,0.0,1.0,0.0016994414618238807,-7.621268741786492e-05,-0.000948243192397058,1.2184696791468346e-07,0.0,0.0,0.0,1.2184696791468346e-07,0.0,0.0,0.0,1.2184696791468346e-07,0.15282104909420013,0.19473905861377835,9.826416015625,8.999999999999999e-08,0.0,0.0,0.0,8.999999999999999e-08,0.0,0.0,0.0,8.999999999999999e-08
1758875468210429968,60855,1758875468206596224,base_link,-0.011362648936103881,0.009201588705770897,-0.002983828287177184,-0.9998887152056603,1.0,0.0,0.0,0.0,1.0,0.0,0.0,0.0,1.0,0.002009518211707473,0.0008176311384886504,0.0010305397445335984,1.2184696791468346e-07,0.0,0.0,0.0,1.2184696791468346e-07,0.0,0.0,0.0,1.2184696791468346e-07,0.14567798376083374,0.2325313389301312,9.805811882019043,8.999999999999999e-08,0.0,0.0,0.0,8.999999999999999e-08,0.0,0.0,0.0,8.999999999999999e-08
1758875468214481424,60856,1758875468210596224,base_link,-0.011350032540419948,0.00919586200272948,-0.002996683075972947,-0.9998888416462057,1.0,0.0,0.0,0.0,1.0,0.0,0.0,0.0,1.0,-0.0010932981967926025,0.0014149977359920742,0.001379377790726721,1.2184696791468346e-07,0.0,0.0,0.0,1.2184696791468346e-07,0.0,0.0,0.0,1.2184696791468346e-07,0.17585554718971252,0.2377195358276379,9.794989585876465,8.999999999999999e-08,0.0,0.0,0.0,8.999999999999999e-08,0.0,0.0,0.0,8.999999999999999e-08
1758875468220589200,60857,1758875468215596224,base_link,-0.011353260231689697,0.00919389739982604,-0.003011308032406229,-0.9998887994993572,1.0,0.0,0.0,0.0,1.0,0.0,0.0,0.0,1.0,-0.00014021177776157856,-0.0001433913130313157,0.0008927765302360058,1.2184696791468346e-07,0.0,0.0,0.0,1.2184696791468346e-07,0.0,0.0,0.0,1.2184696791468346e-07,0.1749618649482727,0.18634173274040342,9.785944938659668,8.999999999999999e-08,0.0,0.0,0.0,8.999999999999999e-08,0.0,0.0,0.0,8.999999999999999e-08
1758875468232592144,60858,1758875468225596224,base_link,-0.011339735373857003,0.009193487455869821,-0.002986820713421415,-0.9998890102335998,1.0,0.0,0.0,0.0,1.0,0.0,0.0,0.0,1.0,-0.0014356207102537155,6.745709106326087e-05,-0.001283960766158998,1.2184696791468346e-07,0.0,0.0,0.0,1.2184696791468346e-07,0.0,0.0,0.0,1.2184696791468346e-07,0.19769398868083954,0.254417806863786,9.811782836914062,8.999999999999999e-08,0.0,0.0,0.0,8.999999999999999e-08,0.0,0.0,0.0,8.999999999999999e-08
1758875468240599344,60859,1758875468233596224,base_link,-0.011340100289832488,0.009195547300772728,-0.0029955872579116596,-0.9998889259399028,1.0,0.0,0.0,0.0,1.0,0.0,0.0,0.0,1.0,0.00015575625002384186,-0.0004313818644732236,0.001103822491131723,1.2184696791468346e-07,0.0,0.0,0.0,1.2184696791468346e-07,0.0,0.0,0.0,1.2184696791468346e-07,0.20817527174949646,0.2511771917343152,9.82104778289795,8.999999999999999e-08,0.0,0.0,0.0,8.999999999999999e-08,0.0,0.0,0.0,8.999999999999999e-08
1758875468250507152,60860,1758875468239596224,base_link,-0.011350349300328287,0.009207119821093445,-0.0030057025015543136,-0.9998887573525087,1.0,0.0,0.0,0.0,1.0,0.0,0.0,0.0,1.0,0.0004155919887125492,-0.001704344991594553,-8.741987403482178e-05,1.2184696791468346e-07,0.0,0.0,0.0,1.2184696791468346e-07,0.0,0.0,0.0,1.2184696791468346e-07,0.16403022408485413,0.19591133296489835,9.813043594360352,8.999999999999999e-08,0.0,0.0,0.0,8.999999999999999e-08,0.0,0.0,0.0,8.999999999999999e-08
1758875468256284848,60861,1758875468252596224,base_link,-0.011336138733026656,0.009215278364366716,-0.002996050873245281,-0.9998887994993572,1.0,0.0,0.0,0.0,1.0,0.0,0.0,0.0,1.0,-0.0006989447865635157,-0.0012954501435160637,0.000621082668658346,1.2184696791468346e-07,0.0,0.0,0.0,1.2184696791468346e-07,0.0,0.0,0.0,1.2184696791468346e-07,0.2032812535762787,0.26319664716720703,9.820392608642578,8.999999999999999e-08,0.0,0.0,0.0,8.999999999999999e-08,0.0,0.0,0.0,8.999999999999999e-08
1758875468272467184,60862,1758875468267595200,base_link,-0.011346092962537068,0.009212093972398364,-0.003019821695805463,-0.9998887152056603,1.0,0.0,0.0,0.0,1.0,0.0,0.0,0.0,1.0,0.0014332407154142857,0.00036527076736092584,0.001132660428993404,1.2184696791468346e-07,0.0,0.0,0.0,1.2184696791468346e-07,0.0,0.0,0.0,1.2184696791468346e-07,0.201210156083107,0.15830971300602079,9.79338550567627,8.999999999999999e-08,0.0,0.0,0.0,8.999999999999999e-08,0.0,0.0,0.0,8.999999999999999e-08
1758875468284674576,60863,1758875468278595200,base_link,-0.011329083004850065,0.009215984406397338,-0.00301349966852886,-0.9998888837930543,1.0,0.0,0.0,0.0,1.0,0.0,0.0,0.0,1.0,-0.0020391279831528664,-0.00048558344133198283,-0.0018983000190928578,1.2184696791468346e-07,0.0,0.0,0.0,1.2184696791468346e-07,0.0,0.0,0.0,1.2184696791468346e-07,0.17673780024051666,0.22565716505050779,9.793636322021484,8.999999999999999e-08,0.0,0.0,0.0,8.999999999999999e-08,0.0,0.0,0.0,8.999999999999999e-08
1758875468294865712,60864,1758875468282595200,base_link,-0.01131650258215988,0.009201942508807813,-0.0030129096126497064,-0.9998891366741454,1.0,0.0,0.0,0.0,1.0,0.0,0.0,0.0,1.0,-0.0005532274954020977,8.033402264118178e-05,-0.0013821701286360621,1.2184696791468346e-07,0.0,0.0,0.0,1.2184696791468346e-07,0.0,0.0,0.0,1.2184696791468346e-07,0.16832731664180756,0.20662194490432859,9.803778648376465,8.999999999999999e-08,0.0,0.0,0.0,8.999999999999999e-08,0.0,0.0,0.0,8.999999999999999e-08
1758875468301531440,60865,1758875468297595200,base_link,-0.011331165487220433,0.00919642020151806,-0.0030173771785918227,-0.9998889680867513,1.0,0.0,0.0,0.0,1.0,0.0,0.0,0.0,1.0,0.002000411506742239,0.002658475423231721,-0.00023521110415458712,1.2184696791468346e-07,0.0,0.0,0.0,1.2184696791468346e-07,0.0,0.0,0.0,1.2184696791468346e-07,0.1838507503271103,0.22140158712864041,9.787521362304688,8.999999999999999e-08,0.0,0.0,0.0,8.999999999999999e-08,0.0,0.0,0.0,8.999999999999999e-08
1758875468312588816,60866,1758875468308595200,base_link,-0.011330176764959761,0.009202483667757246,-0.003018177968713588,-0.9998889259399028,1.0,0.0,0.0,0.0,1.0,0.0,0.0,0.0,1.0,0.00146912329364568,-0.001424073241651058,0.0009370621992275121,1.2184696791468346e-07,0.0,0.0,0.0,1.2184696791468346e-07,0.0,0.0,0.0,1.2184696791468346e-07,0.15408019721508026,0.1935703158378613,9.800496101379395,8.999999999999999e-08,0.0,0.0,0.0,8.999999999999999e-08,0.0,0.0,0.0,8.999999999999999e-08
1758875468316535472,60867,1758875468312595200,base_link,-0.011350853663103339,0.009210295405029,-0.003007851990828377,-0.9998886309119632,1.0,0.0,0.0,0.0,1.0,0.0,0.0,0.0,1.0,0.002037473488599062,-0.001541877631098032,-0.00026288174558430894,1.2184696791468346e-07,0.0,0.0,0.0,1.2184696791468346e-07,0.0,0.0,0.0,1.2184696791468346e-07,0.1811942607164383,0.20107078552246213,9.79232120513916,8.999999999999999e-08,0.0,0.0,0.0,8.999999999999999e-08,0.0,0.0,0.0,8.999999999999999e-08
1758875468330501552,60868,1758875468323595200,base_link,-0.011355493932342711,0.009203096031831606,-0.00302091751386675,-0.9998886309119632,1.0,0.0,0.0,0.0,1.0,0.0,0.0,0.0,1.0,-0.0023028943687677383,-0.0003354947548359633,-0.0006515721324831247,1.2184696791468346e-07,0.0,0.0,0.0,1.2184696791468346e-07,0.0,0.0,0.0,1.2184696791468346e-07,0.19897609949111938,0.22729276120662809,9.789948463439941,8.999999999999999e-08,0.0,0.0,0.0,8.999999999999999e-08,0.0,0.0,0.0,8.999999999999999e-08
1758875468335594896,60869,1758875468327595200,base_link,-0.011341653137782312,0.009203453786135567,-0.0030168714164096892,-0.9998887994993573,1.0,0.0,0.0,0.0,1.0,0.0,0.0,0.0,1.0,-0.002761448733508587,-0.001143764704465866,0.0004463681834749879,1.2184696791468346e-07,0.0,0.0,0.0,1.2184696791468346e-07,0.0,0.0,0.0,1.2184696791468346e-07,0.15853318572044373,0.2286418229341519,9.802326202392578,8.999999999999999e-08,0.0,0.0,0.0,8.999999999999999e-08,0.0,0.0,0.0,8.999999999999999e-08
1758875468345217296,60870,1758875468336595200,base_link,-0.011348959030553872,0.009207128464490111,-0.0030219290382310156,-0.9998886309119632,1.0,0.0,0.0,0.0,1.0,0.0,0.0,0.0,1.0,0.0002361477818340063,-0.001194318756461143,0.0026672249659895897,1.2184696791468346e-07,0.0,0.0,0.0,1.2184696791468346e-07,0.0,0.0,0.0,1.2184696791468346e-07,0.1791633814573288,0.20278646051883817,9.784417152404785,8.999999999999999e-08,0.0,0.0,0.0,8.999999999999999e-08,0.0,0.0,0.0,8.999999999999999e-08
1758875468346954448,60871,1758875468342595200,base_link,-0.011334312177515701,0.009210607719761912,-0.003008652780950088,-0.9998888416462057,1.0,0.0,0.0,0.0,1.0,0.0,0.0,0.0,1.0,-0.0027785622514784336,-0.0011124024167656903,-0.0027645574882626534,1.2184696791468346e-07,0.0,0.0,0.0,1.2184696791468346e-07,0.0,0.0,0.0,1.2184696791468346e-07,0.18170535564422607,0.27292978763580444,9.818307876586914,8.999999999999999e-08,0.0,0.0,0.0,8.999999999999999e-08,0.0,0.0,0.0,8.999999999999999e-08
1758875468362466960,60872,1758875468353594432,base_link,-0.011305181214250896,0.009215846688277103,-0.0030117295008913964,-0.9998891366741454,1.0,0.0,0.0,0.0,1.0,0.0,0.0,0.0,1.0,-0.004077679943293333,-0.0019977567717432976,0.00039536994881927994,1.2184696791468346e-07,0.0,0.0,0.0,1.2184696791468346e-07,0.0,0.0,0.0,1.2184696791468346e-07,0.20900948345661163,0.21123690903186917,9.795886039733887,8.999999999999999e-08,0.0,0.0,0.0,8.999999999999999e-08,0.0,0.0,0.0,8.999999999999999e-08
1758875468372548304,60873,1758875468368594432,base_link,-0.011317957718568332,0.009203387602412516,-0.00299495505518405,-0.9998891366741454,1.0,0.0,0.0,0.0,1.0,0.0,0.0,0.0,1.0,0.0016049603000283241,0.0019461100455373523,-0.0013626388972625139,1.2184696791468346e-07,0.0,0.0,0.0,1.2184696791468346e-07,0.0,0.0,0.0,1.2184696791468346e-07,0.17412562668323517,0.2546110451221478,9.811164855957031,8.999999999999999e-08,0.0,0.0,0.0,8.999999999999999e-08,0.0,0.0,0.0,8.999999999999999e-08
1758875468376540592,60874,1758875468372594432,base_link,-0.011306209943090428,0.00921767867678025,-0.003005154592523671,-0.9998891366741454,1.0,0.0,0.0,0.0,1.0,0.0,0.0,0.0,1.0,-3.81888821721077e-06,-2.111797221004968e-05,-0.0004059623461216688,1.2184696791468346e-07,0.0,0.0,0.0,1.2184696791468346e-07,0.0,0.0,0.0,1.2184696791468346e-07,0.1880643367767334,0.23601064085960508,9.784509658813477,8.999999999999999e-08,0.0,0.0,0.0,8.999999999999999e-08,0.0,0.0,0.0,8.999999999999999e-08
1758875468390094640,60875,1758875468383594432,base_link,-0.011314078891416314,0.009205584506891146,-0.0030140054307109384,-0.9998891366741453,1.0,0.0,0.0,0.0,1.0,0.0,0.0,0.0,1.0,0.00018942216411232948,0.0013039661571383478,0.001532557653263211,1.2184696791468346e-07,0.0,0.0,0.0,1.2184696791468346e-07,0.0,0.0,0.0,1.2184696791468346e-07,0.17742541432380676,0.20367580652237058,9.796260833740234,8.999999999999999e-08,0.0,0.0,0.0,8.999999999999999e-08,0.0,0.0,0.0,8.999999999999999e-08
1758875468416832464,60876,1758875468402594432,base_link,-0.011296057985591494,0.00919075984683582,-0.0030075991097373695,-0.9998894738489333,1.0,0.0,0.0,0.0,1.0,0.0,0.0,0.0,1.0,-0.0036741793155670166,-0.0022918679751455784,9.28580993786457e-05,1.2184696791468346e-07,0.0,0.0,0.0,1.2184696791468346e-07,0.0,0.0,0.0,1.2184696791468346e-07,0.18321911990642548,0.2045239359140408,9.801350593566895,8.999999999999999e-08,0.0,0.0,0.0,8.999999999999999e-08,0.0,0.0,0.0,8.999999999999999e-08
1758875468419596688,60877,1758875468410594432,base_link,-0.011267742135791443,0.009218012805799987,-0.003010717976527077,-0.9998895581426304,1.0,0.0,0.0,0.0,1.0,0.0,0.0,0.0,1.0,-0.004130132496356964,-0.0034793997183442116,-0.0010041418718174096,1.2184696791468346e-07,0.0,0.0,0.0,1.2184696791468346e-07,0.0,0.0,0.0,1.2184696791468346e-07,0.17179667949676514,0.2166491001844418,9.7755708694458,8.999999999999999e-08,0.0,0.0,0.0,8.999999999999999e-08,0.0,0.0,0.0,8.999999999999999e-08
1758875468427602192,60878,1758875468414594432,base_link,-0.011262850467186147,0.00922057454393604,-0.0030055760610087833,-0.9998895581426305,1.0,0.0,0.0,0.0,1.0,0.0,0.0,0.0,1.0,-0.003180223051458597,-0.0032274010591208935,-3.319990355521401e-05,1.2184696791468346e-07,0.0,0.0,0.0,1.2184696791468346e-07,0.0,0.0,0.0,1.2184696791468346e-07,0.20725387334823608,0.2431238740682614,9.807912826538086,8.999999999999999e-08,0.0,0.0,0.0,8.999999999999999e-08,0.0,0.0,0.0,8.999999999999999e-08
1758875468428483664,60879,1758875468425594432,base_link,-0.011251273830962256,0.009230693162619256,-0.0030229827094437403,-0.9998895159957819,1.0,0.0,0.0,0.0,1.0,0.0,0.0,0.0,1.0,-0.0029550734907388687,-0.0010555121116340156,0.003188883885741234,1.2184696791468346e-07,0.0,0.0,0.0,1.2184696791468346e-07,0.0,0.0,0.0,1.2184696791468346e-07,0.1534329652786255,0.17639148235321164,9.806275367736816,8.999999999999999e-08,0.0,0.0,0.0,8.999999999999999e-08,0.0,0.0,0.0,8.999999999999999e-08
1758875468442545648,60880,1758875468429594432,base_link,-0.011251107795428181,0.009232124920697676,-0.003008104871919447,-0.9998895581426305,1.0,0.0,0.0,0.0,1.0,0.0,0.0,0.0,1.0,-0.0005393929313868284,-0.002184451557695866,-0.00198193360120058,1.2184696791468346e-07,0.0,0.0,0.0,1.2184696791468346e-07,0.0,0.0,0.0,1.2184696791468346e-07,0.18101173639297485,0.17830263078212857,9.809489250183105,8.999999999999999e-08,0.0,0.0,0.0,8.999999999999999e-08,0.0,0.0,0.0,8.999999999999999e-08
1758875468446461008,60881,1758875468440594432,base_link,-0.011239382739735803,0.009245329067354983,-0.0029989590057925473,-0.9998896002894789,1.0,0.0,0.0,0.0,1.0,0.0,0.0,0.0,1.0,-0.0014927256852388382,-0.0007161521352827549,-3.16464575007557e-05,1.2184696791468346e-07,0.0,0.0,0.0,1.2184696791468346e-07,0.0,0.0,0.0,1.2184696791468346e-07,0.18448106944561005,0.29140743613243225,9.775534629821777,8.999999999999999e-08,0.0,0.0,0.0,8.999999999999999e-08,0.0,0.0,0.0,8.999999999999999e-08
1758875468452458544,60882,1758875468444594432,base_link,-0.011243578903022605,0.009243432541490057,-0.003014384752347595,-0.9998895159957819,1.0,0.0,0.0,0.0,1.0,0.0,0.0,0.0,1.0,-0.0020170649513602257,0.002261776011437178,0.0034768246114253993,1.2184696791468346e-07,0.0,0.0,0.0,1.2184696791468346e-07,0.0,0.0,0.0,1.2184696791468346e-07,0.15177388489246368,0.23577696084976316,9.772529602050781,8.999999999999999e-08,0.0,0.0,0.0,8.999999999999999e-08,0.0,0.0,0.0,8.999999999999999e-08
1758875468462627728,60883,1758875468459592896,base_link,-0.011225496834876605,0.009242977898825357,-0.002997526012943227,-0.999889768876873,1.0,0.0,0.0,0.0,1.0,0.0,0.0,0.0,1.0,-0.003955750726163387,-0.0027509788051247597,0.0005586212500929836,1.2184696791468346e-07,0.0,0.0,0.0,1.2184696791468346e-07,0.0,0.0,0.0,1.2184696791468346e-07,0.17963114380836487,0.20541656017303586,9.789240837097168,8.999999999999999e-08,0.0,0.0,0.0,8.999999999999999e-08,0.0,0.0,0.0,8.999999999999999e-08
1758875468474024336,60884,1758875468469592896,base_link,-0.011194660405972251,0.00924933096001193,-0.0030060396763424073,-0.9998901060516611,1.0,0.0,0.0,0.0,1.0,0.0,0.0,0.0,1.0,-0.003776038531213999,-0.0010434347204864023,0.0011501052649691703,1.2184696791468346e-07,0.0,0.0,0.0,1.2184696791468346e-07,0.0,0.0,0.0,1.2184696791468346e-07,0.20412901043891907,0.23850731551647306,9.803844451904297,8.999999999999999e-08,0.0,0.0,0.0,8.999999999999999e-08,0.0,0.0,0.0,8.999999999999999e-08
1758875468484817104,60885,1758875468474592896,base_link,-0.011207319689367267,0.009245174803303988,-0.0030046488303415416,-0.9998899796111156,1.0,0.0,0.0,0.0,1.0,0.0,0.0,0.0,1.0,0.0004839855246245861,-0.0015182597562670708,-0.0005245710490271447,1.2184696791468346e-07,0.0,0.0,0.0,1.2184696791468346e-07,0.0,0.0,0.0,1.2184696791468346e-07,0.13738758862018585,0.16096334159374356,9.79301929473877,8.999999999999999e-08,0.0,0.0,0.0,8.999999999999999e-08,0.0,0.0,0.0,8.999999999999999e-08
1758875468492799472,60886,1758875468485592896,base_link,-0.011218012970451764,0.009246706742465683,-0.0030145111928930736,-0.9998898110237214,1.0,0.0,0.0,0.0,1.0,0.0,0.0,0.0,1.0,0.0016515575116500258,-0.0007007147651165723,0.0010618072701618075,1.2184696791468346e-07,0.0,0.0,0.0,1.2184696791468346e-07,0.0,0.0,0.0,1.2184696791468346e-07,0.2120189070701599,0.23169651627540708,9.842791557312012,8.999999999999999e-08,0.0,0.0,0.0,8.999999999999999e-08,0.0,0.0,0.0,8.999999999999999e-08
1758875468496494928,60887,1758875468489592896,base_link,-0.011210172998084229,0.009257839437373131,-0.0030076834034343373,-0.9998898110237215,1.0,0.0,0.0,0.0,1.0,0.0,0.0,0.0,1.0,0.0001325660850852728,-0.001610200386494398,0.0012068259529769423,1.2184696791468346e-07,0.0,0.0,0.0,1.2184696791468346e-07,0.0,0.0,0.0,1.2184696791468346e-07,0.14388974010944366,0.24216286838054776,9.812599182128906,8.999999999999999e-08,0.0,0.0,0.0,8.999999999999999e-08,0.0,0.0,0.0,8.999999999999999e-08
1758875468504635248,60888,1758875468499592896,base_link,-0.011219586480235523,0.00925488495975613,-0.003020032430048022,-0.999889684583176,1.0,0.0,0.0,0.0,1.0,0.0,0.0,0.0,1.0,0.0006220389623194933,0.0008307455573230982,0.0003926488570868968,1.2184696791468346e-07,0.0,0.0,0.0,1.2184696791468346e-07,0.0,0.0,0.0,1.2184696791468346e-07,0.1724037528038025,0.21076944470405698,9.831591606140137,8.999999999999999e-08,0.0,0.0,0.0,8.999999999999999e-08,0.0,0.0,0.0,8.999999999999999e-08
1758875468512771440,60889,1758875468504592896,base_link,-0.011224308820584205,0.009249011483607496,-0.003024499995990139,-0.999889684583176,1.0,0.0,0.0,0.0,1.0,0.0,0.0,0.0,1.0,-0.0006242794916033745,0.000690973130986094,-0.0032334416173398495,1.2184696791468346e-07,0.0,0.0,0.0,1.2184696791468346e-07,0.0,0.0,0.0,1.2184696791468346e-07,0.1970808357000351,0.2613531053066266,9.831015586853027,8.999999999999999e-08,0.0,0.0,0.0,8.999999999999999e-08,0.0,0.0,0.0,8.999999999999999e-08
1758875468535523952,60890,1758875468524592896,base_link,-0.011231921512778421,0.009248412290423294,-0.003008737074647058,-0.999889684583176,1.0,0.0,0.0,0.0,1.0,0.0,0.0,0.0,1.0,0.00273878313601017,-0.0017823274247348313,-0.0031236042268574233,1.2184696791468346e-07,0.0,0.0,0.0,1.2184696791468346e-07,0.0,0.0,0.0,1.2184696791468346e-07,0.1392139047384262,0.22900016605854154,9.812211036682129,8.999999999999999e-08,0.0,0.0,0.0,8.999999999999999e-08,0.0,0.0,0.0,8.999999999999999e-08
1758875468544939440,60891,1758875468534592896,base_link,-0.011233411469727733,0.009257632901351814,-0.0029957979921542734,-0.9998896424363275,1.0,0.0,0.0,0.0,1.0,0.0,0.0,0.0,1.0,0.0011443899711593986,0.0023965046275407076,0.0005836724885739383,1.2184696791468346e-07,0.0,0.0,0.0,1.2184696791468346e-07,0.0,0.0,0.0,1.2184696791468346e-07,0.22820442914962769,0.2584390640258801,9.785115242004395,8.999999999999999e-08,0.0,0.0,0.0,8.999999999999999e-08,0.0,0.0,0.0,8.999999999999999e-08
1758875468550495024,60892,1758875468541592896,base_link,-0.011229303716041127,0.009255605654402053,-0.0030051545925236733,-0.9998896424363275,1.0,0.0,0.0,0.0,1.0,0.0,0.0,0.0,1.0,0.0008366664405912161,-0.0006875942926853894,0.0005434441845864059,1.2184696791468346e-07,0.0,0.0,0.0,1.2184696791468346e-07,0.0,0.0,0.0,1.2184696791468346e-07,0.18263281881809235,0.2107194960117352,9.784321784973145,8.999999999999999e-08,0.0,0.0,0.0,8.999999999999999e-08,0.0,0.0,0.0,8.999999999999999e-08
1758875468556526480,60893,1758875468547592896,base_link,-0.011231676369585325,0.009264619235400876,-0.0030057867952513386,-0.9998895159957819,1.0,0.0,0.0,0.0,1.0,0.0,0.0,0.0,1.0,-0.0025601673405617476,-0.001808847999200225,-0.0026140497066080566,1.2184696791468346e-07,0.0,0.0,0.0,1.2184696791468346e-07,0.0,0.0,0.0,1.2184696791468346e-07,0.1617237776517868,0.2179833799600613,9.786419868469238,8.999999999999999e-08,0.0,0.0,0.0,8.999999999999999e-08,0.0,0.0,0.0,8.999999999999999e-08
1758875468569605488,60894,1758875468561593152,base_link,-0.011213385295876104,0.009257346928399223,-0.002994912908335542,-0.99988985317057,1.0,0.0,0.0,0.0,1.0,0.0,0.0,0.0,1.0,0.0007258623372763395,0.001516829710453749,0.0010175893548876045,1.2184696791468346e-07,0.0,0.0,0.0,1.2184696791468346e-07,0.0,0.0,0.0,1.2184696791468346e-07,0.16623930633068085,0.24945010244846463,9.80039119720459,8.999999999999999e-08,0.0,0.0,0.0,8.999999999999999e-08,0.0,0.0,0.0,8.999999999999999e-08
1758875468576554672,60895,1758875468571593152,base_link,-0.011229017743088536,0.009248539636467526,-0.0030029629564011537,-0.9998897267300244,1.0,0.0,0.0,0.0,1.0,0.0,0.0,0.0,1.0,0.003467055968940258,7.825810462236426e-05,0.0018257800256833434,1.2184696791468346e-07,0.0,0.0,0.0,1.2184696791468346e-07,0.0,0.0,0.0,1.2184696791468346e-07,0.1646670699119568,0.21317140758037686,9.796813011169434,8.999999999999999e-08,0.0,0.0,0.0,8.999999999999999e-08,0.0,0.0,0.0,8.999999999999999e-08
1758875468584562512,60896,1758875468576593152,base_link,-0.01123191418647077,0.009253071575135337,-0.0029970623976095494,-0.9998896424363274,1.0,0.0,0.0,0.0,1.0,0.0,0.0,0.0,1.0,-0.002562342444434762,0.000272660283371806,-0.0011689673410728574,1.2184696791468346e-07,0.0,0.0,0.0,1.2184696791468346e-07,0.0,0.0,0.0,1.2184696791468346e-07,0.17491573095321655,0.20736463367939115,9.808185577392578,8.999999999999999e-08,0.0,0.0,0.0,8.999999999999999e-08,0.0,0.0,0.0,8.999999999999999e-08
1758875468589598576,60897,1758875468585593152,base_link,-0.011221414352835494,0.009248021855848124,-0.0030003498517934685,-0.9998898110237215,1.0,0.0,0.0,0.0,1.0,0.0,0.0,0.0,1.0,-0.0023614608217030764,0.0005709282122552396,0.0012874428648501635,1.2184696791468346e-07,0.0,0.0,0.0,1.2184696791468346e-07,0.0,0.0,0.0,1.2184696791468346e-07,0.18957290053367615,0.27077102661132935,9.798870086669922,8.999999999999999e-08,0.0,0.0,0.0,8.999999999999999e-08,0.0,0.0,0.0,8.999999999999999e-08
1758875468598850448,60898,1758875468591593152,base_link,-0.011243993786062634,0.009242502676644785,-0.003008357753010569,-0.9998895581426304,1.0,0.0,0.0,0.0,1.0,0.0,0.0,0.0,1.0,0.003747948445379734,0.0013933287700638175,0.0002745465608313678,1.2184696791468346e-07,0.0,0.0,0.0,1.2184696791468346e-07,0.0,0.0,0.0,1.2184696791468346e-07,0.15641085803508759,0.20779819786548734,9.783833503723145,8.999999999999999e-08,0.0,0.0,0.0,8.999999999999999e-08,0.0,0.0,0.0,8.999999999999999e-08
1758875468613558352,60899,1758875468606593152,base_link,-0.01122768279105279,0.009247088945234502,-0.0030181779687135355,-0.999889684583176,1.0,0.0,0.0,0.0,1.0,0.0,0.0,0.0,1.0,-0.0018110715318471193,-0.0006041247397661206,0.002529626479372382,1.2184696791468346e-07,0.0,0.0,0.0,1.2184696791468346e-07,0.0,0.0,0.0,1.2184696791468346e-07,0.16113054752349854,0.2107209265232098,9.809449195861816,8.999999999999999e-08,0.0,0.0,0.0,8.999999999999999e-08,0.0,0.0,0.0,8.999999999999999e-08
1758875468624595600,60900,1758875468616593152,base_link,-0.011204742887025594,0.009254630761576049,-0.00302707095374937,-0.9998898953174186,1.0,0.0,0.0,0.0,1.0,0.0,0.0,0.0,1.0,-0.0027936401311308146,-0.0025806499179452658,0.0016393030527979138,1.2184696791468346e-07,0.0,0.0,0.0,1.2184696791468346e-07,0.0,0.0,0.0,1.2184696791468346e-07,0.15914294123649597,0.19415293633937955,9.812753677368164,8.999999999999999e-08,0.0,0.0,0.0,8.999999999999999e-08,0.0,0.0,0.0,8.999999999999999e-08
1758875468630385744,60901,1758875468621593152,base_link,-0.011211227657113763,0.009257125904398731,-0.003011813794588366,-0.9998898110237214,1.0,0.0,0.0,0.0,1.0,0.0,0.0,0.0,1.0,0.0013018862809985876,-0.0007292614318430424,-0.0003748652525246142,1.2184696791468346e-07,0.0,0.0,0.0,1.2184696791468346e-07,0.0,0.0,0.0,1.2184696791468346e-07,0.1784249246120453,0.2221527099609387,9.786368370056152,8.999999999999999e-08,0.0,0.0,0.0,8.999999999999999e-08,0.0,0.0,0.0,8.999999999999999e-08
1758875468641528976,60902,1758875468630593152,base_link,-0.011213757785113432,0.009264894095414896,-0.003026480897870214,-0.9998896424363275,1.0,0.0,0.0,0.0,1.0,0.0,0.0,0.0,1.0,0.0020891758613288403,0.00017161527648568162,0.0007242271676659584,1.2184696791468346e-07,0.0,0.0,0.0,1.2184696791468346e-07,0.0,0.0,0.0,1.2184696791468346e-07,0.18161407113075256,0.2589109539985669,9.815671920776367,8.999999999999999e-08,0.0,0.0,0.0,8.999999999999999e-08,0.0,0.0,0.0,8.999999999999999e-08
1758875468642829744,60903,1758875468636593152,base_link,-0.011217117514557033,0.00926554095075786,-0.003036132526179247,-0.9998896002894789,1.0,0.0,0.0,0.0,1.0,0.0,0.0,0.0,1.0,0.0005346741527318954,-0.0009799904655665157,0.0011465996503829958,1.2184696791468346e-07,0.0,0.0,0.0,1.2184696791468346e-07,0.0,0.0,0.0,1.2184696791468346e-07,0.14890062808990479,0.2198103517293942,9.807580947875977,8.999999999999999e-08,0.0,0.0,0.0,8.999999999999999e-08,0.0,0.0,0.0,8.999999999999999e-08
1758875468650765904,60904,1758875468646593152,base_link,-0.011222019884510584,0.00926267611751201,-0.00300081346712709,-0.9998896845831758,1.0,0.0,0.0,0.0,1.0,0.0,0.0,0.0,1.0,0.0005001665558665991,0.0007621294353157276,-0.0048180497251451015,1.2184696791468346e-07,0.0,0.0,0.0,1.2184696791468346e-07,0.0,0.0,0.0,1.2184696791468346e-07,0.18356172740459442,0.2181161195039761,9.79747200012207,8.999999999999999e-08,0.0,0.0,0.0,8.999999999999999e-08,0.0,0.0,0.0,8.999999999999999e-08
1758875468656432336,60905,1758875468651593152,base_link,-0.011224045485099076,0.009254993619599947,-0.0030231512968377852,-0.999889684583176,1.0,0.0,0.0,0.0,1.0,0.0,0.0,0.0,1.0,0.00044407998211681843,0.0016792312962934375,0.00011742452625185231,1.2184696791468346e-07,0.0,0.0,0.0,1.2184696791468346e-07,0.0,0.0,0.0,1.2184696791468346e-07,0.17792382836341858,0.25887662172317627,9.766444206237793,8.999999999999999e-08,0.0,0.0,0.0,8.999999999999999e-08,0.0,0.0,0.0,8.999999999999999e-08
1758875468664478352,60906,1758875468660591616,base_link,-0.011230203864065475,0.009250330136666667,-0.0030146376334386064,-0.999889684583176,1.0,0.0,0.0,0.0,1.0,0.0,0.0,0.0,1.0,0.004263696726411581,0.0006423506420105698,0.001958259614184499,1.2184696791468346e-07,0.0,0.0,0.0,1.2184696791468346e-07,0.0,0.0,0.0,1.2184696791468346e-07,0.18846489489078522,0.20093710720539212,9.797200202941895,8.999999999999999e-08,0.0,0.0,0.0,8.999999999999999e-08,0.0,0.0,0.0,8.999999999999999e-08
1758875468675241584,60907,1758875468666591616,base_link,-0.01125873374083062,0.009249352445026504,-0.003023783499565505,-0.9998893052615394,1.0,0.0,0.0,0.0,1.0,0.0,0.0,0.0,1.0,0.00441099563613534,-0.0002362339291721583,-0.0005355621688067913,1.2184696791468346e-07,0.0,0.0,0.0,1.2184696791468346e-07,0.0,0.0,0.0,1.2184696791468346e-07,0.17112496495246887,0.1700802743434918,9.80062484741211,8.999999999999999e-08,0.0,0.0,0.0,8.999999999999999e-08,0.0,0.0,0.0,8.999999999999999e-08
1758875468676563760,60908,1758875468670591616,base_link,-0.011255801818363017,0.009255275476649363,-0.003020580339078664,-0.9998893052615394,1.0,0.0,0.0,0.0,1.0,0.0,0.0,0.0,1.0,0.002474043285474181,-0.0012379668187350035,-0.0007013798458501696,1.2184696791468346e-07,0.0,0.0,0.0,1.2184696791468346e-07,0.0,0.0,0.0,1.2184696791468346e-07,0.22228674590587616,0.24106553196907163,9.809061050415039,8.999999999999999e-08,0.0,0.0,0.0,8.999999999999999e-08,0.0,0.0,0.0,8.999999999999999e-08
1758875468688718672,60909,1758875468679591616,base_link,-0.011265397881979151,0.00926946472357255,-0.0030188523182897655,-0.9998890945272968,1.0,0.0,0.0,0.0,1.0,0.0,0.0,0.0,1.0,0.00317292264662683,-0.0033441989216953516,-0.0012663508532568808,1.2184696791468346e-07,0.0,0.0,0.0,1.2184696791468346e-07,0.0,0.0,0.0,1.2184696791468346e-07,0.20404282212257385,0.21883608400821805,9.805660247802734,8.999999999999999e-08,0.0,0.0,0.0,8.999999999999999e-08,0.0,0.0,0.0,8.999999999999999e-08
1758875468691409104,60910,1758875468681591616,base_link,-0.011278469743508417,0.00926772509593665,-0.003020664632775741,-0.9998889680867512,1.0,0.0,0.0,0.0,1.0,0.0,0.0,0.0,1.0,0.0024024881422519684,-0.0017773464787751438,-0.0011168090859428046,1.2184696791468346e-07,0.0,0.0,0.0,1.2184696791468346e-07,0.0,0.0,0.0,1.2184696791468346e-07,0.1653740108013153,0.1872764378786099,9.813657760620117,8.999999999999999e-08,0.0,0.0,0.0,8.999999999999999e-08,0.0,0.0,0.0,8.999999999999999e-08
1758875468697492784,60911,1758875468691591616,base_link,-0.011278249542688561,0.009268645988113,-0.0030022886068249185,-0.9998889680867513,1.0,0.0,0.0,0.0,1.0,0.0,0.0,0.0,1.0,-9.874673560261726e-05,0.0009619980119168755,-0.003043872769922018,1.2184696791468346e-07,0.0,0.0,0.0,1.2184696791468346e-07,0.0,0.0,0.0,1.2184696791468346e-07,0.17204029858112335,0.20322400331497312,9.805013656616211,8.999999999999999e-08,0.0,0.0,0.0,8.999999999999999e-08,0.0,0.0,0.0,8.999999999999999e-08
1758875468700436464,60912,1758875468695591616,base_link,-0.011287723528616527,0.00926788981438171,-0.003019020905683753,-0.9998888416462057,1.0,0.0,0.0,0.0,1.0,0.0,0.0,0.0,1.0,0.0034945106599479914,0.0021364702843129635,-0.0007859693141654136,1.2184696791468346e-07,0.0,0.0,0.0,1.2184696791468346e-07,0.0,0.0,0.0,1.2184696791468346e-07,0.17359559237957,0.25389969348907593,9.818334579467773,8.999999999999999e-08,0.0,0.0,0.0,8.999999999999999e-08,0.0,0.0,0.0,8.999999999999999e-08
1758875468713597168,60913,1758875468706591616,base_link,-0.011287081200767055,0.00927451040927465,-0.003014216164953492,-0.9998887573525087,1.0,0.0,0.0,0.0,1.0,0.0,0.0,0.0,1.0,-0.0015868677292019129,-0.0003342269919812678,0.0007520141080021858,1.2184696791468346e-07,0.0,0.0,0.0,1.2184696791468346e-07,0.0,0.0,0.0,1.2184696791468346e-07,0.16132785379886627,0.22399505972862363,9.793744087219238,8.999999999999999e-08,0.0,0.0,0.0,8.999999999999999e-08,0.0,0.0,0.0,8.999999999999999e-08
1758875468721449392,60914,1758875468715591616,base_link,-0.011290384048428777,0.009251298444047592,-0.003003510865431795,-0.9998890102335998,1.0,0.0,0.0,0.0,1.0,0.0,0.0,0.0,1.0,0.00035850214771926403,0.0008305816445499655,-0.0028012446127831936,1.2184696791468346e-07,0.0,0.0,0.0,1.2184696791468346e-07,0.0,0.0,0.0,1.2184696791468346e-07,0.17248305678367615,0.23522113263607144,9.814325332641602,8.999999999999999e-08,0.0,0.0,0.0,8.999999999999999e-08,0.0,0.0,0.0,8.999999999999999e-08
1758875468731468912,60915,1758875468725591616,base_link,-0.011290537160026884,0.009248180565074548,-0.003003679452825839,-0.9998890102335998,1.0,0.0,0.0,0.0,1.0,0.0,0.0,0.0,1.0,0.000561792403459549,0.0013467799872159958,0.000321429339237511,1.2184696791468346e-07,0.0,0.0,0.0,1.2184696791468346e-07,0.0,0.0,0.0,1.2184696791468346e-07,0.19151708483695984,0.23720547556877256,9.777267456054688,8.999999999999999e-08,0.0,0.0,0.0,8.999999999999999e-08,0.0,0.0,0.0,8.999999999999999e-08
1758875468741449616,60916,1758875468730591616,base_link,-0.011294150676060249,0.009268025721504545,-0.003006461144827568,-0.9998887573525087,1.0,0.0,0.0,0.0,1.0,0.0,0.0,0.0,1.0,3.61492857336998e-05,-0.0005416867788881067,-0.0023475559428334236,1.2184696791468346e-07,0.0,0.0,0.0,1.2184696791468346e-07,0.0,0.0,0.0,1.2184696791468346e-07,0.1888018697500229,0.18697184324264646,9.756768226623535,8.999999999999999e-08,0.0,0.0,0.0,8.999999999999999e-08,0.0,0.0,0.0,8.999999999999999e-08
1758875468746500784,60917,1758875468740591616,base_link,-0.011304274727735658,0.00927178378805741,-0.002990487489241876,-0.9998887152056603,1.0,0.0,0.0,0.0,1.0,0.0,0.0,0.0,1.0,0.0005230188835412264,-0.0015686794649809601,-0.001829397748224437,1.2184696791468346e-07,0.0,0.0,0.0,1.2184696791468346e-07,0.0,0.0,0.0,1.2184696791468346e-07,0.22179770469665527,0.24081334471702695,9.790482521057129,8.999999999999999e-08,0.0,0.0,0.0,8.999999999999999e-08,0.0,0.0,0.0,8.999999999999999e-08
1758875468755379568,60918,1758875468745591616,base_link,-0.01129581078444681,0.009263198014034586,-0.002997947481428334,-0.9998888416462057,1.0,0.0,0.0,0.0,1.0,0.0,0.0,0.0,1.0,-0.0014953275676816702,0.0009782931301742796,0.0032209078781306744,1.2184696791468346e-07,0.0,0.0,0.0,1.2184696791468346e-07,0.0,0.0,0.0,1.2184696791468346e-07,0.17141258716583252,0.26556634902954224,9.820826530456543,8.999999999999999e-08,0.0,0.0,0.0,8.999999999999999e-08,0.0,0.0,0.0,8.999999999999999e-08
1758875468762758352,60919,1758875468755590080,base_link,-0.011287866597410887,0.009255088203054906,-0.00301189808828544,-0.9998889680867513,1.0,0.0,0.0,0.0,1.0,0.0,0.0,0.0,1.0,-0.0001830596011132002,0.0026812166906893253,-0.0016138962237164383,1.2184696791468346e-07,0.0,0.0,0.0,1.2184696791468346e-07,0.0,0.0,0.0,1.2184696791468346e-07,0.17166149616241455,0.2161126285791409,9.833832740783691,8.999999999999999e-08,0.0,0.0,0.0,8.999999999999999e-08,0.0,0.0,0.0,8.999999999999999e-08
1758875468765514544,60920,1758875468760590080,base_link,-0.011288641951250972,0.00925703527221082,-0.002999675502217288,-0.9998889680867513,1.0,0.0,0.0,0.0,1.0,0.0,0.0,0.0,1.0,-0.0006882117595523596,0.0013100261567160487,-0.0004186184378340842,1.2184696791468346e-07,0.0,0.0,0.0,1.2184696791468346e-07,0.0,0.0,0.0,1.2184696791468346e-07,0.1398405134677887,0.20944929122924924,9.828577995300293,8.999999999999999e-08,0.0,0.0,0.0,8.999999999999999e-08,0.0,0.0,0.0,8.999999999999999e-08
1758875468776892400,60921,1758875468771590080,base_link,-0.011293703688975455,0.009250682787250693,-0.0029980739219738124,-0.9998889680867512,1.0,0.0,0.0,0.0,1.0,0.0,0.0,0.0,1.0,0.0003481737803667784,-0.0005861867684870959,-0.0004908354021608828,1.2184696791468346e-07,0.0,0.0,0.0,1.2184696791468346e-07,0.0,0.0,0.0,1.2184696791468346e-07,0.1829136610031128,0.19431568682193875,9.805065155029297,8.999999999999999e-08,0.0,0.0,0.0,8.999999999999999e-08,0.0,0.0,0.0,8.999999999999999e-08
1758875468788117104,60922,1758875468775590080,base_link,-0.011284689449432124,0.009254818529078888,-0.0030128674658011947,-0.9998890102335998,1.0,0.0,0.0,0.0,1.0,0.0,0.0,0.0,1.0,-0.0012194777373224497,-0.0014647429343312979,-0.0004959421930834649,1.2184696791468346e-07,0.0,0.0,0.0,1.2184696791468346e-07,0.0,0.0,0.0,1.2184696791468346e-07,0.13331015408039093,0.19893957674503446,9.797418594360352,8.999999999999999e-08,0.0,0.0,0.0,8.999999999999999e-08,0.0,0.0,0.0,8.999999999999999e-08
1758875468793818800,60923,1758875468785590080,base_link,-0.011273785763377328,0.009259304040358884,-0.0029924683911218973,-0.9998890945272968,1.0,0.0,0.0,0.0,1.0,0.0,0.0,0.0,1.0,-0.0022066410165280104,-6.941403262317208e-05,-0.002217384520918131,1.2184696791468346e-07,0.0,0.0,0.0,1.2184696791468346e-07,0.0,0.0,0.0,1.2184696791468346e-07,0.1980278491973877,0.248128727078439,9.801255226135254,8.999999999999999e-08,0.0,0.0,0.0,8.999999999999999e-08,0.0,0.0,0.0,8.999999999999999e-08
1758875468801438224,60924,1758875468790590080,base_link,-0.011270201634892632,0.009254278357946214,-0.002993395621789141,-0.9998891788209938,1.0,0.0,0.0,0.0,1.0,0.0,0.0,0.0,1.0,-0.0029615245293825865,-0.0014452801551669836,0.0001853042049333455,1.2184696791468346e-07,0.0,0.0,0.0,1.2184696791468346e-07,0.0,0.0,0.0,1.2184696791468346e-07,0.1806173324584961,0.2532465457916272,9.776935577392578,8.999999999999999e-08,0.0,0.0,0.0,8.999999999999999e-08,0.0,0.0,0.0,8.999999999999999e-08
1758875468807136208,60925,1758875468800590080,base_link,-0.01127015759472866,0.009263366848382821,-0.0029970623976095477,-0.9998891366741453,1.0,0.0,0.0,0.0,1.0,0.0,0.0,0.0,1.0,0.0014349723933264613,-0.00018886942416429506,0.0010370321106165648,1.2184696791468346e-07,0.0,0.0,0.0,1.2184696791468346e-07,0.0,0.0,0.0,1.2184696791468346e-07,0.13393448293209076,0.1838916689157498,9.782548904418945,8.999999999999999e-08,0.0,0.0,0.0,8.999999999999999e-08,0.0,0.0,0.0,8.999999999999999e-08
1758875468814807792,60926,1758875468805590080,base_link,-0.011272517077382698,0.00925763825202594,-0.002991246132515077,-0.9998891366741454,1.0,0.0,0.0,0.0,1.0,0.0,0.0,0.0,1.0,0.0019003449706360698,0.002841895446181297,-0.0043256222270429134,1.2184696791468346e-07,0.0,0.0,0.0,1.2184696791468346e-07,0.0,0.0,0.0,1.2184696791468346e-07,0.1933438777923584,0.21782614290714383,9.795662879943848,8.999999999999999e-08,0.0,0.0,0.0,8.999999999999999e-08,0.0,0.0,0.0,8.999999999999999e-08
1758875468825882960,60927,1758875468820590080,base_link,-0.01129277489426501,0.009243496996533776,-0.002991456866757632,-0.9998890945272968,1.0,0.0,0.0,0.0,1.0,0.0,0.0,0.0,1.0,0.004849671386182308,0.003029054962098599,0.002483731601387262,1.2184696791468346e-07,0.0,0.0,0.0,1.2184696791468346e-07,0.0,0.0,0.0,1.2184696791468346e-07,0.15251007676124573,0.23876988887786985,9.825668334960938,8.999999999999999e-08,0.0,0.0,0.0,8.999999999999999e-08,0.0,0.0,0.0,8.999999999999999e-08
1758875468835419024,60928,1758875468829590080,base_link,-0.01130148085266054,0.009234759428001862,-0.002991456866757632,-0.9998890945272968,1.0,0.0,0.0,0.0,1.0,0.0,0.0,0.0,1.0,0.001009233994409442,0.001678763306699693,-0.0016531316796317699,1.2184696791468346e-07,0.0,0.0,0.0,1.2184696791468346e-07,0.0,0.0,0.0,1.2184696791468346e-07,0.1444363296031952,0.1782761365175259,9.799056053161621,8.999999999999999e-08,0.0,0.0,0.0,8.999999999999999e-08,0.0,0.0,0.0,8.999999999999999e-08
1758875468840822224,60929,1758875468835590080,base_link,-0.011302107704714077,0.009231007123713438,-0.0029888437621500017,-0.9998890945272968,1.0,0.0,0.0,0.0,1.0,0.0,0.0,0.0,1.0,-0.00039039901457726955,-0.0009358145762234928,-0.0014127221656963227,1.2184696791468346e-07,0.0,0.0,0.0,1.2184696791468346e-07,0.0,0.0,0.0,1.2184696791468346e-07,0.2320285588502884,0.20799140632152677,9.78898811340332,8.999999999999999e-08,0.0,0.0,0.0,8.999999999999999e-08,0.0,0.0,0.0,8.999999999999999e-08
1758875468853052464,60930,1758875468848590080,base_link,-0.011316349882152093,0.009229526221751112,-0.0029893916711805895,-0.9998889680867513,1.0,0.0,0.0,0.0,1.0,0.0,0.0,0.0,1.0,0.002352276351302862,0.0022071632556617264,0.0020466796122491355,1.2184696791468346e-07,0.0,0.0,0.0,1.2184696791468346e-07,0.0,0.0,0.0,1.2184696791468346e-07,0.18757474422454834,0.24392850697040677,9.795166015625,8.999999999999999e-08,0.0,0.0,0.0,8.999999999999999e-08,0.0,0.0,0.0,8.999999999999999e-08
1758875468861734128,60931,1758875468850590080,base_link,-0.01130881168780534,0.009223714401832037,-0.002998326803064879,-0.9998890523804482,1.0,0.0,0.0,0.0,1.0,0.0,0.0,0.0,1.0,0.0015551976393908262,0.002593434881418944,0.002608920913189649,1.2184696791468346e-07,0.0,0.0,0.0,1.2184696791468346e-07,0.0,0.0,0.0,1.2184696791468346e-07,0.17911487817764282,0.19572561979293943,9.794299125671387,8.999999999999999e-08,0.0,0.0,0.0,8.999999999999999e-08,0.0,0.0,0.0,8.999999999999999e-08
1758875468861741200,60932,1758875468857597760,base_link,-0.011314935822457326,0.009212099323072492,-0.0030002234112479326,-0.9998890945272968,1.0,0.0,0.0,0.0,1.0,0.0,0.0,0.0,1.0,-0.00013667577877640724,0.0027794165071099997,0.00013757718261331285,1.2184696791468346e-07,0.0,0.0,0.0,1.2184696791468346e-07,0.0,0.0,0.0,1.2184696791468346e-07,0.19701531529426575,0.19992592930793882,9.83615779876709,8.999999999999999e-08,0.0,0.0,0.0,8.999999999999999e-08,0.0,0.0,0.0,8.999999999999999e-08
1758875468882634768,60933,1758875468877597760,base_link,-0.01129173916839008,0.00923311224355127,-0.002988380146816325,-0.9998891366741454,1.0,0.0,0.0,0.0,1.0,0.0,0.0,0.0,1.0,-0.0047997888177633286,-0.0008847236167639497,-0.0027080178260803223,1.2184696791468346e-07,0.0,0.0,0.0,1.2184696791468346e-07,0.0,0.0,0.0,1.2184696791468346e-07,0.19475924968719482,0.19297294318676114,9.822766304016113,8.999999999999999e-08,0.0,0.0,0.0,8.999999999999999e-08,0.0,0.0,0.0,8.999999999999999e-08
1758875468889565552,60934,1758875468886597760,base_link,-0.011289775800257593,0.00923028799311072,-0.0030006027328845324,-0.9998892209678424,1.0,0.0,0.0,0.0,1.0,0.0,0.0,0.0,1.0,-0.0033003513235598803,-0.003290587337687612,-0.0018137026345357295,1.2184696791468346e-07,0.0,0.0,0.0,1.2184696791468346e-07,0.0,0.0,0.0,1.2184696791468346e-07,0.19757799804210663,0.25563013553619507,9.799185752868652,8.999999999999999e-08,0.0,0.0,0.0,8.999999999999999e-08,0.0,0.0,0.0,8.999999999999999e-08
1758875468896754480,60935,1758875468892597760,base_link,-0.01128921891855803,0.009234929167848793,-0.0029971466913066252,-0.9998891366741454,1.0,0.0,0.0,0.0,1.0,0.0,0.0,0.0,1.0,-0.00023450958542525768,-0.000358633231371641,0.0013079290511086583,1.2184696791468346e-07,0.0,0.0,0.0,1.2184696791468346e-07,0.0,0.0,0.0,1.2184696791468346e-07,0.15269744396209717,0.21204647421836972,9.814346313476562,8.999999999999999e-08,0.0,0.0,0.0,8.999999999999999e-08,0.0,0.0,0.0,8.999999999999999e-08
1758875468908453456,60936,1758875468901597760,base_link,-0.011283868985293242,0.00922881120705157,-0.003011645207194375,-0.9998892209678424,1.0,0.0,0.0,0.0,1.0,0.0,0.0,0.0,1.0,-0.0020391459111124277,-0.002058682730421424,-0.0010470432462170718,1.2184696791468346e-07,0.0,0.0,0.0,1.2184696791468346e-07,0.0,0.0,0.0,1.2184696791468346e-07,0.17473557591438293,0.20068004727363706,9.813604354858398,8.999999999999999e-08,0.0,0.0,0.0,8.999999999999999e-08,0.0,0.0,0.0,8.999999999999999e-08
1758875468915721552,60937,1758875468907597760,base_link,-0.011284622689482627,0.009238549433963364,-0.003001403523006187,-0.9998891788209938,1.0,0.0,0.0,0.0,1.0,0.0,0.0,0.0,1.0,0.0011907531879842281,-0.00012172455899417406,-0.0004501091316342354,1.2184696791468346e-07,0.0,0.0,0.0,1.2184696791468346e-07,0.0,0.0,0.0,1.2184696791468346e-07,0.1887248009443283,0.2623613476753247,9.811935424804688,8.999999999999999e-08,0.0,0.0,0.0,8.999999999999999e-08,0.0,0.0,0.0,8.999999999999999e-08
1758875468921827568,60938,1758875468917597760,base_link,-0.011290161871975398,0.009232937811574717,-0.003006545438524592,-0.9998891788209938,1.0,0.0,0.0,0.0,1.0,0.0,0.0,0.0,1.0,0.0009531611576676369,0.0008822551462799314,0.002700987970456481,1.2184696791468346e-07,0.0,0.0,0.0,1.2184696791468346e-07,0.0,0.0,0.0,1.2184696791468346e-07,0.14938025176525116,0.1915314197540295,9.82026195526123,8.999999999999999e-08,0.0,0.0,0.0,8.999999999999999e-08,0.0,0.0,0.0,8.999999999999999e-08
1758875468931578352,60939,1758875468922597760,base_link,-0.01129576913150668,0.009239441185545236,-0.0030104229485874976,-0.9998890102335998,1.0,0.0,0.0,0.0,1.0,0.0,0.0,0.0,1.0,-0.0004182555712759495,-0.0019740017596632247,-0.004912419710308313,1.2184696791468346e-07,0.0,0.0,0.0,1.2184696791468346e-07,0.0,0.0,0.0,1.2184696791468346e-07,0.17693133652210236,0.16174934804439664,9.810545921325684,8.999999999999999e-08,0.0,0.0,0.0,8.999999999999999e-08,0.0,0.0,0.0,8.999999999999999e-08
1758875468938564592,60940,1758875468932597760,base_link,-0.011288486699383217,0.009245286673552282,-0.00299415426506234,-0.9998890945272968,1.0,0.0,0.0,0.0,1.0,0.0,0.0,0.0,1.0,-0.0022117604967206717,-0.002447159728035331,-0.0019556717015802856,1.2184696791468346e-07,0.0,0.0,0.0,1.2184696791468346e-07,0.0,0.0,0.0,1.2184696791468346e-07,0.16378790140151978,0.2691463828086865,9.803030967712402,8.999999999999999e-08,0.0,0.0,0.0,8.999999999999999e-08,0.0,0.0,0.0,8.999999999999999e-08
1758875468947625744,60941,1758875468937597760,base_link,-0.011283344701546823,0.009232360844267661,-0.0029886330279074473,-0.9998893052615393,1.0,0.0,0.0,0.0,1.0,0.0,0.0,0.0,1.0,-0.002495876746252179,0.001037551090121269,-0.001527826418168843,1.2184696791468346e-07,0.0,0.0,0.0,1.2184696791468346e-07,0.0,0.0,0.0,1.2184696791468346e-07,0.15419702231884003,0.19001834094524503,9.791659355163574,8.999999999999999e-08,0.0,0.0,0.0,8.999999999999999e-08,0.0,0.0,0.0,8.999999999999999e-08
1758875468951665744,60942,1758875468947597760,base_link,-0.011290704759604165,0.009240168383318176,-0.0029839968745711746,-0.9998891366741453,1.0,0.0,0.0,0.0,1.0,0.0,0.0,0.0,1.0,0.0012788387248292565,0.0004236055538058281,-3.938970621675258e-05,1.2184696791468346e-07,0.0,0.0,0.0,1.2184696791468346e-07,0.0,0.0,0.0,1.2184696791468346e-07,0.21046972274780273,0.2217605859041226,9.793461799621582,8.999999999999999e-08,0.0,0.0,0.0,8.999999999999999e-08,0.0,0.0,0.0,8.999999999999999e-08
1758875468961948688,60943,1758875468952596736,base_link,-0.011301133635068707,0.009231065816492712,-0.002986062070148216,-0.9998890945272968,1.0,0.0,0.0,0.0,1.0,0.0,0.0,0.0,1.0,-8.381996303796768e-05,0.0010984886903315785,0.0020088902674615383,1.2184696791468346e-07,0.0,0.0,0.0,1.2184696791468346e-07,0.0,0.0,0.0,1.2184696791468346e-07,0.20624394714832306,0.25149238109588745,9.795732498168945,8.999999999999999e-08,0.0,0.0,0.0,8.999999999999999e-08,0.0,0.0,0.0,8.999999999999999e-08
1758875468970712528,60944,1758875468966596736,base_link,-0.011286133472902003,0.00923942785001895,-0.0029970623976095477,-0.9998891366741453,1.0,0.0,0.0,0.0,1.0,0.0,0.0,0.0,1.0,-0.0009026532061398029,-0.0012677011545747519,0.0001826146617531778,1.2184696791468346e-07,0.0,0.0,0.0,1.2184696791468346e-07,0.0,0.0,0.0,1.2184696791468346e-07,0.15310698747634888,0.20236925780773282,9.79992961883545,8.999999999999999e-08,0.0,0.0,0.0,8.999999999999999e-08,0.0,0.0,0.0,8.999999999999999e-08
1758875468981578096,60945,1758875468977596736,base_link,-0.011278594620010744,0.009234738848485986,-0.002997989628276847,-0.9998893052615394,1.0,0.0,0.0,0.0,1.0,0.0,0.0,0.0,1.0,-0.0004925080575048923,0.0002225539647042751,-0.00016990327276289466,1.2184696791468346e-07,0.0,0.0,0.0,1.2184696791468346e-07,0.0,0.0,0.0,1.2184696791468346e-07,0.2162761390209198,0.2664078474044812,9.807023048400879,8.999999999999999e-08,0.0,0.0,0.0,8.999999999999999e-08,0.0,0.0,0.0,8.999999999999999e-08
1758875468993512464,60946,1758875468986596736,base_link,-0.011271324206324552,0.009244324704662245,-0.0030078941376768904,-0.9998892631146908,1.0,0.0,0.0,0.0,1.0,0.0,0.0,0.0,1.0,-0.0033984084147959948,-0.0027367512229830027,0.0012221474898979072,1.2184696791468346e-07,0.0,0.0,0.0,1.2184696791468346e-07,0.0,0.0,0.0,1.2184696791468346e-07,0.17470183968544006,0.22876448929309964,9.808293342590332,8.999999999999999e-08,0.0,0.0,0.0,8.999999999999999e-08,0.0,0.0,0.0,8.999999999999999e-08
1758875468999610128,60947,1758875468995596736,base_link,-0.011287096347290738,0.009238393852823353,-0.00300490171143266,-0.9998891366741453,1.0,0.0,0.0,0.0,1.0,0.0,0.0,0.0,1.0,-0.0017228701617568731,-7.297215051949019e-05,0.0003978139138780534,1.2184696791468346e-07,0.0,0.0,0.0,1.2184696791468346e-07,0.0,0.0,0.0,1.2184696791468346e-07,0.17111605405807495,0.2007179558277142,9.796822547912598,8.999999999999999e-08,0.0,0.0,0.0,8.999999999999999e-08,0.0,0.0,0.0,8.999999999999999e-08
1758875469003585552,60948,1758875468996596736,base_link,-0.011263782966209451,0.00924316788891591,-0.0030029629564011524,-0.9998893895552363,1.0,0.0,0.0,0.0,1.0,0.0,0.0,0.0,1.0,-0.00299311731941998,-0.0004576793871819973,0.00016875227447599178,1.2184696791468346e-07,0.0,0.0,0.0,1.2184696791468346e-07,0.0,0.0,0.0,1.2184696791468346e-07,0.2090131938457489,0.2611999511718762,9.828936576843262,8.999999999999999e-08,0.0,0.0,0.0,8.999999999999999e-08,0.0,0.0,0.0,8.999999999999999e-08
1758875469012795344,60949,1758875469004596736,base_link,-0.011259257036760275,0.009239215716369317,-0.003007978431373969,-0.9998894317020849,1.0,0.0,0.0,0.0,1.0,0.0,0.0,0.0,1.0,-0.002182765631005168,-0.00024299556389451005,0.0016639332752674818,1.2184696791468346e-07,0.0,0.0,0.0,1.2184696791468346e-07,0.0,0.0,0.0,1.2184696791468346e-07,0.22424431145191193,0.24129456281662107,9.791130065917969,8.999999999999999e-08,0.0,0.0,0.0,8.999999999999999e-08,0.0,0.0,0.0,8.999999999999999e-08
1758875469020508400,60950,1758875469010596736,base_link,-0.011242615287771299,0.00924544192542004,-0.0030099593332539335,-0.9998895581426305,1.0,0.0,0.0,0.0,1.0,0.0,0.0,0.0,1.0,-0.00500938855111599,-0.001705799484625459,-0.002217541914433241,1.2184696791468346e-07,0.0,0.0,0.0,1.2184696791468346e-07,0.0,0.0,0.0,1.2184696791468346e-07,0.180254265666008,0.19710922241211057,9.783167839050293,8.999999999999999e-08,0.0,0.0,0.0,8.999999999999999e-08,0.0,0.0,0.0,8.999999999999999e-08
1758875469039915568,60951,1758875469032596736,base_link,-0.011231126978829541,0.009254850550805587,-0.0030011084950666116,-0.9998896424363274,1.0,0.0,0.0,0.0,1.0,0.0,0.0,0.0,1.0,0.00043484894558787346,0.00012204307131469257,0.0005444457638077438,1.2184696791468346e-07,0.0,0.0,0.0,1.2184696791468346e-07,0.0,0.0,0.0,1.2184696791468346e-07,0.17534129321575165,0.23467153310775876,9.799123764038086,8.999999999999999e-08,0.0,0.0,0.0,8.999999999999999e-08,0.0,0.0,0.0,8.999999999999999e-08
1758875469043624208,60952,1758875469038596736,base_link,-0.011223482511862812,0.009257555933962444,-0.003001529963551722,-0.9998897267300244,1.0,0.0,0.0,0.0,1.0,0.0,0.0,0.0,1.0,0.00011845421977341175,-0.0020857288036495447,-0.00011538865510374282,1.2184696791468346e-07,0.0,0.0,0.0,1.2184696791468346e-07,0.0,0.0,0.0,1.2184696791468346e-07,0.171115443110466,0.1931113451719296,9.796855926513672,8.999999999999999e-08,0.0,0.0,0.0,8.999999999999999e-08,0.0,0.0,0.0,8.999999999999999e-08
1758875469052384784,60953,1758875469049596736,base_link,-0.01123385664581513,0.009260506789584651,-0.003005913235796872,-0.9998895581426305,1.0,0.0,0.0,0.0,1.0,0.0,0.0,0.0,1.0,0.0020517774391919374,-0.0015943513717502356,-6.177870091050844e-05,1.2184696791468346e-07,0.0,0.0,0.0,1.2184696791468346e-07,0.0,0.0,0.0,1.2184696791468346e-07,0.17702028155326843,0.23160715401172757,9.842869758605957,8.999999999999999e-08,0.0,0.0,0.0,8.999999999999999e-08,0.0,0.0,0.0,8.999999999999999e-08
1758875469064646224,60954,1758875469053597248,base_link,-0.01123550383026572,0.009255244195785235,-0.00300203572573391,-0.9998896424363274,1.0,0.0,0.0,0.0,1.0,0.0,0.0,0.0,1.0,0.001500591984950006,-0.001004195539280772,0.002130904933437705,1.2184696791468346e-07,0.0,0.0,0.0,1.2184696791468346e-07,0.0,0.0,0.0,1.2184696791468346e-07,0.19060000777244568,0.23884756863117337,9.766892433166504,8.999999999999999e-08,0.0,0.0,0.0,8.999999999999999e-08,0.0,0.0,0.0,8.999999999999999e-08
1758875469069785040,60955,1758875469064597248,base_link,-0.01123345896725037,0.009255769138076159,-0.0030057867952513946,-0.9998896002894789,1.0,0.0,0.0,0.0,1.0,0.0,0.0,0.0,1.0,-0.0014264823403209448,-0.00013033067807555204,-0.00042985903564840555,1.2184696791468346e-07,0.0,0.0,0.0,1.2184696791468346e-07,0.0,0.0,0.0,1.2184696791468346e-07,0.19601422548294067,0.19620585441589475,9.795787811279297,8.999999999999999e-08,0.0,0.0,0.0,8.999999999999999e-08,0.0,0.0,0.0,8.999999999999999e-08
1758875469073541200,60956,1758875469068597248,base_link,-0.011229328082187922,0.009255406115416136,-0.0029974417192462047,-0.999889684583176,1.0,0.0,0.0,0.0,1.0,0.0,0.0,0.0,1.0,-0.003358011832460761,-0.00031783222220838113,-0.0033542560413479805,1.2184696791468346e-07,0.0,0.0,0.0,1.2184696791468346e-07,0.0,0.0,0.0,1.2184696791468346e-07,0.19730240106582642,0.22439847886562467,9.776167869567871,8.999999999999999e-08,0.0,0.0,0.0,8.999999999999999e-08,0.0,0.0,0.0,8.999999999999999e-08
1758875469081620368,60957,1758875469073597248,base_link,-0.011222788158997209,0.009257618084100385,-0.003006039676342461,-0.999889684583176,1.0,0.0,0.0,0.0,1.0,0.0,0.0,0.0,1.0,-0.0010458885226398706,-0.0002791367005556822,0.00020565930753946307,1.2184696791468346e-07,0.0,0.0,0.0,1.2184696791468346e-07,0.0,0.0,0.0,1.2184696791468346e-07,0.16340023279190063,0.20686455070972562,9.818757057189941,8.999999999999999e-08,0.0,0.0,0.0,8.999999999999999e-08,0.0,0.0,0.0,8.999999999999999e-08
1758875469090598256,60958,1758875469083597248,base_link,-0.011233058489871453,0.009256380349697632,-0.00301101300446671,-0.9998895159957819,1.0,0.0,0.0,0.0,1.0,0.0,0.0,0.0,1.0,0.0033963227178901434,0.00032785511575639237,-0.000674378708936274,1.2184696791468346e-07,0.0,0.0,0.0,1.2184696791468346e-07,0.0,0.0,0.0,1.2184696791468346e-07,0.18208418786525726,0.19510762393474698,9.82652759552002,8.999999999999999e-08,0.0,0.0,0.0,8.999999999999999e-08,0.0,0.0,0.0,8.999999999999999e-08
1758875469102895408,60959,1758875469094597248,base_link,-0.011233565404506473,0.009254772348645265,-0.003010760123375644,-0.9998896002894789,1.0,0.0,0.0,0.0,1.0,0.0,0.0,0.0,1.0,0.00043966551311314106,-0.0019962007645517588,-0.00022149179130792593,1.2184696791468346e-07,0.0,0.0,0.0,1.2184696791468346e-07,0.0,0.0,0.0,1.2184696791468346e-07,0.2047470510005951,0.27968096733093384,9.816622734069824,8.999999999999999e-08,0.0,0.0,0.0,8.999999999999999e-08,0.0,0.0,0.0,8.999999999999999e-08
1758875469112509552,60960,1758875469103597248,base_link,-0.011223573144050725,0.009270849560354774,-0.0030095378647687675,-0.9998895581426304,1.0,0.0,0.0,0.0,1.0,0.0,0.0,0.0,1.0,-0.0022509281989187002,-0.0020882745739072566,-0.002453754190355539,1.2184696791468346e-07,0.0,0.0,0.0,1.2184696791468346e-07,0.0,0.0,0.0,1.2184696791468346e-07,0.14751660823822021,0.2577481269836438,9.790068626403809,8.999999999999999e-08,0.0,0.0,0.0,8.999999999999999e-08,0.0,0.0,0.0,8.999999999999999e-08
1758875469123626608,60961,1758875469113597248,base_link,-0.011216877968992255,0.009281690931635502,-0.002995207936275118,-0.9998895581426305,1.0,0.0,0.0,0.0,1.0,0.0,0.0,0.0,1.0,0.002234892686828971,0.0021913941018283367,-0.0004256790271028879,1.2184696791468346e-07,0.0,0.0,0.0,1.2184696791468346e-07,0.0,0.0,0.0,1.2184696791468346e-07,0.16932956874370575,0.22142088413238645,9.796496391296387,8.999999999999999e-08,0.0,0.0,0.0,8.999999999999999e-08,0.0,0.0,0.0,8.999999999999999e-08
1758875469131499888,60962,1758875469124597248,base_link,-0.011216091749167788,0.009277603922100898,-0.002987621503543183,-0.9998896424363274,1.0,0.0,0.0,0.0,1.0,0.0,0.0,0.0,1.0,0.00043244892731308937,-0.0002453695051372051,-8.443614933639762e-05,1.2184696791468346e-07,0.0,0.0,0.0,1.2184696791468346e-07,0.0,0.0,0.0,1.2184696791468346e-07,0.18060486018657684,0.25596106052398804,9.771903038024902,8.999999999999999e-08,0.0,0.0,0.0,8.999999999999999e-08,0.0,0.0,0.0,8.999999999999999e-08
1758875469139339216,60963,1758875469128597248,base_link,-0.01121824543666308,0.00927596389932183,-0.0030047331240385623,-0.9998895581426305,1.0,0.0,0.0,0.0,1.0,0.0,0.0,0.0,1.0,-0.0010754831600934267,-0.0023383668158203363,-0.0012221544748172162,1.2184696791468346e-07,0.0,0.0,0.0,1.2184696791468346e-07,0.0,0.0,0.0,1.2184696791468346e-07,0.13520310819149017,0.20426557958126187,9.76050853729248,8.999999999999999e-08,0.0,0.0,0.0,8.999999999999999e-08,0.0,0.0,0.0,8.999999999999999e-08
1758875469146590832,60964,1758875469133597248,base_link,-0.011208415836700803,0.009280203773500351,-0.002998579684155948,-0.9998896424363274,1.0,0.0,0.0,0.0,1.0,0.0,0.0,0.0,1.0,0.00282179843634367,0.00033390708267688724,-0.002136609051376581,1.2184696791468346e-07,0.0,0.0,0.0,1.2184696791468346e-07,0.0,0.0,0.0,1.2184696791468346e-07,0.17941899597644806,0.17251718044281125,9.824454307556152,8.999999999999999e-08,0.0,0.0,0.0,8.999999999999999e-08,0.0,0.0,0.0,8.999999999999999e-08
1758875469150081072,60965,1758875469143597248,base_link,-0.011235832361657141,0.009279351616907022,-0.0029943228524564407,-0.9998893474083879,1.0,0.0,0.0,0.0,1.0,0.0,0.0,0.0,1.0,0.0018650982528924942,0.0003254297189414504,0.0020918273366987705,1.2184696791468346e-07,0.0,0.0,0.0,1.2184696791468346e-07,0.0,0.0,0.0,1.2184696791468346e-07,0.1990906149148941,0.27055329084396484,9.786761283874512,8.999999999999999e-08,0.0,0.0,0.0,8.999999999999999e-08,0.0,0.0,0.0,8.999999999999999e-08
1758875469154087376,60966,1758875469148597248,base_link,-0.011236344791602414,0.009275676856234415,-0.003009327130526267,-0.9998893474083879,1.0,0.0,0.0,0.0,1.0,0.0,0.0,0.0,1.0,0.0013070710701867938,0.0016454285942018036,0.002998055424541235,1.2184696791468346e-07,0.0,0.0,0.0,1.2184696791468346e-07,0.0,0.0,0.0,1.2184696791468346e-07,0.19272415339946747,0.22408126294613004,9.814006805419922,8.999999999999999e-08,0.0,0.0,0.0,8.999999999999999e-08,0.0,0.0,0.0,8.999999999999999e-08
1758875469161736464,60967,1758875469157597504,base_link,-0.01123436125554437,0.009273285022581422,-0.003010127920647977,-0.9998893895552364,1.0,0.0,0.0,0.0,1.0,0.0,0.0,0.0,1.0,-0.0004161952529102564,0.0015926999039947987,-0.00014215114060789366,1.2184696791468346e-07,0.0,0.0,0.0,1.2184696791468346e-07,0.0,0.0,0.0,1.2184696791468346e-07,0.13393433392047882,0.21334590017795682,9.783238410949707,8.999999999999999e-08,0.0,0.0,0.0,8.999999999999999e-08,0.0,0.0,0.0,8.999999999999999e-08
1758875469165614384,60968,1758875469158597504,base_link,-0.011229516508235268,0.009272185747161472,-0.0030081470187680133,-0.9998894317020849,1.0,0.0,0.0,0.0,1.0,0.0,0.0,0.0,1.0,0.0003338905517011881,0.002797556109726429,-0.0012870315695181493,1.2184696791468346e-07,0.0,0.0,0.0,1.2184696791468346e-07,0.0,0.0,0.0,1.2184696791468346e-07,0.16955380141735077,0.20193371176719785,9.794082641601562,8.999999999999999e-08,0.0,0.0,0.0,8.999999999999999e-08,0.0,0.0,0.0,8.999999999999999e-08
1758875469172260880,60969,1758875469163597504,base_link,-0.01122596999910559,0.009263857381723204,-0.0030051545925237283,-0.9998895581426304,1.0,0.0,0.0,0.0,1.0,0.0,0.0,0.0,1.0,-0.000752823892980814,0.0011620461009442806,-0.0005791212897747756,1.2184696791468346e-07,0.0,0.0,0.0,1.2184696791468346e-07,0.0,0.0,0.0,1.2184696791468346e-07,0.20365218818187714,0.26745671033859375,9.82357406616211,8.999999999999999e-08,0.0,0.0,0.0,8.999999999999999e-08,0.0,0.0,0.0,8.999999999999999e-08
1758875469180532560,60970,1758875469173597504,base_link,-0.011234829727643737,0.009273994028062327,-0.0030051124456751607,-0.9998893474083879,1.0,0.0,0.0,0.0,1.0,0.0,0.0,0.0,1.0,-0.0005512218922376633,-0.0008219268638640642,-0.0002995539689436554,1.2184696791468346e-07,0.0,0.0,0.0,1.2184696791468346e-07,0.0,0.0,0.0,1.2184696791468346e-07,0.16451506316661835,0.2204570621252072,9.824748039245605,8.999999999999999e-08,0.0,0.0,0.0,8.999999999999999e-08,0.0,0.0,0.0,8.999999999999999e-08
1758875469184524720,60971,1758875469178597504,base_link,-0.011229060383845427,0.009276332354974047,-0.003003932333916907,-0.9998894317020849,1.0,0.0,0.0,0.0,1.0,0.0,0.0,0.0,1.0,0.0015612638089805841,8.363951928913572e-05,-0.001776743563823402,1.2184696791468346e-07,0.0,0.0,0.0,1.2184696791468346e-07,0.0,0.0,0.0,1.2184696791468346e-07,0.1665191799402237,0.2245229184627545,9.826154708862305,8.999999999999999e-08,0.0,0.0,0.0,8.999999999999999e-08,0.0,0.0,0.0,8.999999999999999e-08
1758875469193495600,60972,1758875469188597504,base_link,-0.011247041776999768,0.00927946521583465,-0.0029925948316674865,-0.9998892209678423,1.0,0.0,0.0,0.0,1.0,0.0,0.0,0.0,1.0,0.0027678932528942823,-0.0012465210165828469,-0.0012129963142797349,1.2184696791468346e-07,0.0,0.0,0.0,1.2184696791468346e-07,0.0,0.0,0.0,1.2184696791468346e-07,0.21012145280838013,0.25880742073059204,9.830817222595215,8.999999999999999e-08,0.0,0.0,0.0,8.999999999999999e-08,0.0,0.0,0.0,8.999999999999999e-08
1758875469198544560,60973,1758875469193597504,base_link,-0.011253243537585632,0.009281496578687586,-0.0030048595645840934,-0.9998890945272968,1.0,0.0,0.0,0.0,1.0,0.0,0.0,0.0,1.0,0.0024258168414235115,-0.002192439744248986,0.002829509321600199,1.2184696791468346e-07,0.0,0.0,0.0,1.2184696791468346e-07,0.0,0.0,0.0,1.2184696791468346e-07,0.1753721386194229,0.21219466626644254,9.812479972839355,8.999999999999999e-08,0.0,0.0,0.0,8.999999999999999e-08,0.0,0.0,0.0,8.999999999999999e-08
1758875469208763120,60974,1758875469203597504,base_link,-0.011242437727708334,0.009278279341811899,-0.0029979053345797696,-0.9998893052615393,1.0,0.0,0.0,0.0,1.0,0.0,0.0,0.0,1.0,-0.0016366604249924421,-0.0015556204598397019,-0.0010863539064303038,1.2184696791468346e-07,0.0,0.0,0.0,1.2184696791468346e-07,0.0,0.0,0.0,1.2184696791468346e-07,0.18223702907562256,0.18184275925159574,9.805316925048828,8.999999999999999e-08,0.0,0.0,0.0,8.999999999999999e-08,0.0,0.0,0.0,8.999999999999999e-08
1758875469215492208,60975,1758875469208597504,base_link,-0.011224556927227586,0.00928223851139389,-0.0029940699713653747,-0.9998894317020849,1.0,0.0,0.0,0.0,1.0,0.0,0.0,0.0,1.0,-0.0033515773247927427,-0.0009546133223921064,-0.0025046207010746002,1.2184696791468346e-07,0.0,0.0,0.0,1.2184696791468346e-07,0.0,0.0,0.0,1.2184696791468346e-07,0.18480826914310455,0.23896630108356595,9.764469146728516,8.999999999999999e-08,0.0,0.0,0.0,8.999999999999999e-08,0.0,0.0,0.0,8.999999999999999e-08
1758875469222668976,60976,1758875469217597504,base_link,-0.011242588287446472,0.009270493617048209,-0.002994449293001974,-0.9998893895552363,1.0,0.0,0.0,0.0,1.0,0.0,0.0,0.0,1.0,0.0006994337309151888,0.001082985196262598,0.0007259896374307572,1.2184696791468346e-07,0.0,0.0,0.0,1.2184696791468346e-07,0.0,0.0,0.0,1.2184696791468346e-07,0.18480826914310455,0.23896630108356595,9.764469146728516,8.999999999999999e-08,0.0,0.0,0.0,8.999999999999999e-08,0.0,0.0,0.0,8.999999999999999e-08
1758875469233611216,60977,1758875469222597504,base_link,-0.01123927679638808,0.009287311855965326,-0.002995165789426606,-0.9998892631146908,1.0,0.0,0.0,0.0,1.0,0.0,0.0,0.0,1.0,-0.00034155184403061867,-0.0011856651399284601,0.0007614984642714263,1.2184696791468346e-07,0.0,0.0,0.0,1.2184696791468346e-07,0.0,0.0,0.0,1.2184696791468346e-07,0.16315731406211853,0.20570650696754575,9.8176851272583,8.999999999999999e-08,0.0,0.0,0.0,8.999999999999999e-08,0.0,0.0,0.0,8.999999999999999e-08
1758875469241418096,60978,1758875469237597504,base_link,-0.011238734896576074,0.009270306178817625,-0.003007261934949225,-0.9998893895552364,1.0,0.0,0.0,0.0,1.0,0.0,0.0,0.0,1.0,0.0005419559311121702,0.0012207478284835815,0.00013874901924282296,1.2184696791468346e-07,0.0,0.0,0.0,1.2184696791468346e-07,0.0,0.0,0.0,1.2184696791468346e-07,0.16475825011730194,0.264876186847688,9.832283020019531,8.999999999999999e-08,0.0,0.0,0.0,8.999999999999999e-08,0.0,0.0,0.0,8.999999999999999e-08
1758875469253405136,60979,1758875469248597504,base_link,-0.01123089352480146,0.009284785679232705,-0.003013162493740718,-0.9998893052615393,1.0,0.0,0.0,0.0,1.0,0.0,0.0,0.0,1.0,-0.0010509269777685404,-0.0008818951901048422,0.0002301853965036572,1.2184696791468346e-07,0.0,0.0,0.0,1.2184696791468346e-07,0.0,0.0,0.0,1.2184696791468346e-07,0.17154666781425476,0.19680772721767545,9.794041633605957,8.999999999999999e-08,0.0,0.0,0.0,8.999999999999999e-08,0.0,0.0,0.0,8.999999999999999e-08
1758875469264470544,60980,1758875469252595712,base_link,-0.011235028690403211,0.009278574781341793,-0.0030061239700394263,-0.9998893474083879,1.0,0.0,0.0,0.0,1.0,0.0,0.0,0.0,1.0,0.001884068944491446,0.0010503148660063746,0.0025803479366004467,1.2184696791468346e-07,0.0,0.0,0.0,1.2184696791468346e-07,0.0,0.0,0.0,1.2184696791468346e-07,0.17812344431877136,0.19441695511341214,9.759417533874512,8.999999999999999e-08,0.0,0.0,0.0,8.999999999999999e-08,0.0,0.0,0.0,8.999999999999999e-08
1758875469265576688,60981,1758875469261595712,base_link,-0.011249206165843318,0.00927392512784318,-0.0030240785275050816,-0.9998891788209938,1.0,0.0,0.0,0.0,1.0,0.0,0.0,0.0,1.0,0.0026432231534272432,0.00018779677338898244,0.005027894861996174,1.2184696791468346e-07,0.0,0.0,0.0,1.2184696791468346e-07,0.0,0.0,0.0,1.2184696791468346e-07,0.21717572212219238,0.2178061157464993,9.807021141052246,8.999999999999999e-08,0.0,0.0,0.0,8.999999999999999e-08,0.0,0.0,0.0,8.999999999999999e-08
1758875469273724048,60982,1758875469267595712,base_link,-0.011256187560808569,0.009279957889444683,-0.0030469642662465314,-0.9998889680867512,1.0,0.0,0.0,0.0,1.0,0.0,0.0,0.0,1.0,0.002177075482904911,-0.0018514932598918672,0.002876873360946775,1.2184696791468346e-07,0.0,0.0,0.0,1.2184696791468346e-07,0.0,0.0,0.0,1.2184696791468346e-07,0.169770747423172,0.20972490310669065,9.793792724609375,8.999999999999999e-08,0.0,0.0,0.0,8.999999999999999e-08,0.0,0.0,0.0,8.999999999999999e-08
1758875469281562896,60983,1758875469277595712,base_link,-0.011249545398582991,0.009283117668312049,-0.0030546771395239445,-0.9998890102335998,1.0,0.0,0.0,0.0,1.0,0.0,0.0,0.0,1.0,-0.0017134335357695818,-0.0008984191808849572,0.0006952332332730294,1.2184696791468346e-07,0.0,0.0,0.0,1.2184696791468346e-07,0.0,0.0,0.0,1.2184696791468346e-07,0.15794235467910767,0.1838022619485867,9.780233383178711,8.999999999999999e-08,0.0,0.0,0.0,8.999999999999999e-08,0.0,0.0,0.0,8.999999999999999e-08
1758875469285387280,60984,1758875469278595712,base_link,-0.011241299433526286,0.009281274731506459,-0.003044056133699269,-0.9998891788209937,1.0,0.0,0.0,0.0,1.0,0.0,0.0,0.0,1.0,-0.0010323936585336924,-0.0008965537417680029,-0.0036507826298475266,1.2184696791468346e-07,0.0,0.0,0.0,1.2184696791468346e-07,0.0,0.0,0.0,1.2184696791468346e-07,0.17670704424381256,0.24062511324882627,9.809849739074707,8.999999999999999e-08,0.0,0.0,0.0,8.999999999999999e-08,0.0,0.0,0.0,8.999999999999999e-08
1758875469291893392,60985,1758875469282595712,base_link,-0.011245461681770928,0.009283724270121963,-0.0030445618958813456,-0.9998890945272968,1.0,0.0,0.0,0.0,1.0,0.0,0.0,0.0,1.0,0.0007061464712023735,-9.980704635381723e-05,-0.001984476577490568,1.2184696791468346e-07,0.0,0.0,0.0,1.2184696791468346e-07,0.0,0.0,0.0,1.2184696791468346e-07,0.18143931031227112,0.2592412829399121,9.83669376373291,8.999999999999999e-08,0.0,0.0,0.0,8.999999999999999e-08,0.0,0.0,0.0,8.999999999999999e-08
1758875469303482832,60986,1758875469293595712,base_link,-0.011237286180976577,0.009292892856034352,-0.0030479757906107414,-0.9998890523804483,1.0,0.0,0.0,0.0,1.0,0.0,0.0,0.0,1.0,-0.0005651616957038641,-0.001106910640373826,0.00035583821590989844,1.2184696791468346e-07,0.0,0.0,0.0,1.2184696791468346e-07,0.0,0.0,0.0,1.2184696791468346e-07,0.1767609417438507,0.19172461330890775,9.799009323120117,8.999999999999999e-08,0.0,0.0,0.0,8.999999999999999e-08,0.0,0.0,0.0,8.999999999999999e-08
1758875469309478160,60987,1758875469302595712,base_link,-0.011240469914400418,0.009290070005000884,-0.003036216819876211,-0.9998890945272968,1.0,0.0,0.0,0.0,1.0,0.0,0.0,0.0,1.0,-6.328499875962734e-05,-0.0005101079586893322,-0.001870758947916329,1.2184696791468346e-07,0.0,0.0,0.0,1.2184696791468346e-07,0.0,0.0,0.0,1.2184696791468346e-07,0.18244829773902893,0.24763725697994352,9.798032760620117,8.999999999999999e-08,0.0,0.0,0.0,8.999999999999999e-08,0.0,0.0,0.0,8.999999999999999e-08
1758875469313440528,60988,1758875469306595712,base_link,-0.011244766176452434,0.00928192784302225,-0.003034994561269391,-0.9998891366741454,1.0,0.0,0.0,0.0,1.0,0.0,0.0,0.0,1.0,0.0007467151153832674,0.0029274451080709696,0.0009232786251232025,1.2184696791468346e-07,0.0,0.0,0.0,1.2184696791468346e-07,0.0,0.0,0.0,1.2184696791468346e-07,0.19879484176635742,0.27253109216690186,9.834367752075195,8.999999999999999e-08,0.0,0.0,0.0,8.999999999999999e-08,0.0,0.0,0.0,8.999999999999999e-08
1758875469320849968,60989,1758875469311595712,base_link,-0.01125055733453757,0.009272924304827172,-0.003034278064844703,-0.9998891788209938,1.0,0.0,0.0,0.0,1.0,0.0,0.0,0.0,1.0,-0.00017029792070388794,0.0011559727136045694,0.0007863997598178684,1.2184696791468346e-07,0.0,0.0,0.0,1.2184696791468346e-07,0.0,0.0,0.0,1.2184696791468346e-07,0.1610352247953415,0.21593111753463864,9.85312557220459,8.999999999999999e-08,0.0,0.0,0.0,8.999999999999999e-08,0.0,0.0,0.0,8.999999999999999e-08
1758875469331184080,60990,1758875469321595712,base_link,-0.011250069435375218,0.0092705475353798,-0.0030321707224192055,-0.9998891788209938,1.0,0.0,0.0,0.0,1.0,0.0,0.0,0.0,1.0,-0.00207819533534348,-0.0007801058236509565,-0.002805329393595457,1.2184696791468346e-07,0.0,0.0,0.0,1.2184696791468346e-07,0.0,0.0,0.0,1.2184696791468346e-07,0.19631491601467133,0.19375517964363217,9.820043563842773,8.999999999999999e-08,0.0,0.0,0.0,8.999999999999999e-08,0.0,0.0,0.0,8.999999999999999e-08
1758875469351548432,60991,1758875469339595712,base_link,-0.011255509013011157,0.00927045007079262,-0.003024289261747637,-0.9998891366741454,1.0,0.0,0.0,0.0,1.0,0.0,0.0,0.0,1.0,0.0028556645847857,-0.0005488984752446413,0.00018150196410715585,1.2184696791468346e-07,0.0,0.0,0.0,1.2184696791468346e-07,0.0,0.0,0.0,1.2184696791468346e-07,0.1530429869890213,0.17680342495441556,9.777596473693848,8.999999999999999e-08,0.0,0.0,0.0,8.999999999999999e-08,0.0,0.0,0.0,8.999999999999999e-08
1758875469356606416,60992,1758875469350595712,base_link,-0.01126926164492555,0.009278566384899314,-0.0030125302910130503,-0.9998889259399028,1.0,0.0,0.0,0.0,1.0,0.0,0.0,0.0,1.0,0.00253009214065969,0.00029856408946216085,-0.0016677399398759007,1.2184696791468346e-07,0.0,0.0,0.0,1.2184696791468346e-07,0.0,0.0,0.0,1.2184696791468346e-07,0.20890812575817108,0.23828236758709073,9.794196128845215,8.999999999999999e-08,0.0,0.0,0.0,8.999999999999999e-08,0.0,0.0,0.0,8.999999999999999e-08
1758875469360373584,60993,1758875469354596736,base_link,-0.01128037507740614,0.009274098983593286,-0.003033983036905124,-0.9998887994993573,1.0,0.0,0.0,0.0,1.0,0.0,0.0,0.0,1.0,0.002916301367804408,-0.0012280319351702926,0.0021784775890409946,1.2184696791468346e-07,0.0,0.0,0.0,1.2184696791468346e-07,0.0,0.0,0.0,1.2184696791468346e-07,0.15871527791023254,0.26041126251220825,9.819926261901855,8.999999999999999e-08,0.0,0.0,0.0,8.999999999999999e-08,0.0,0.0,0.0,8.999999999999999e-08
1758875469369478896,60994,1758875469363596736,base_link,-0.011272501436950634,0.00927055741354742,-0.003040600092121361,-0.9998889259399028,1.0,0.0,0.0,0.0,1.0,0.0,0.0,0.0,1.0,-0.0011516085360199213,-0.000506722135469317,0.003859770018607378,1.2184696791468346e-07,0.0,0.0,0.0,1.2184696791468346e-07,0.0,0.0,0.0,1.2184696791468346e-07,0.19356787204742432,0.23325951397419095,9.79801082611084,8.999999999999999e-08,0.0,0.0,0.0,8.999999999999999e-08,0.0,0.0,0.0,8.999999999999999e-08
1758875469376632112,60995,1758875469369596736,base_link,-0.011273153642967727,0.009267084002858129,-0.0030351631486634344,-0.9998889680867513,1.0,0.0,0.0,0.0,1.0,0.0,0.0,0.0,1.0,0.0008794688619673252,0.001525135478004813,-0.0019322336884215476,1.2184696791468346e-07,0.0,0.0,0.0,1.2184696791468346e-07,0.0,0.0,0.0,1.2184696791468346e-07,0.17809806764125824,0.22668588161468625,9.830302238464355,8.999999999999999e-08,0.0,0.0,0.0,8.999999999999999e-08,0.0,0.0,0.0,8.999999999999999e-08
1758875469383668272,60996,1758875469378596736,base_link,-0.01128889228048207,0.009261004896186876,-0.0030180515281680548,-0.9998888837930542,1.0,0.0,0.0,0.0,1.0,0.0,0.0,0.0,1.0,0.0019093825249001384,0.0005819601938128469,-0.0018285674741491675,1.2184696791468346e-07,0.0,0.0,0.0,1.2184696791468346e-07,0.0,0.0,0.0,1.2184696791468346e-07,0.1861814707517624,0.27622544765472534,9.78344440460205,8.999999999999999e-08,0.0,0.0,0.0,8.999999999999999e-08,0.0,0.0,0.0,8.999999999999999e-08
1758875469385798704,60997,1758875469380596736,base_link,-0.011281279094379473,0.009273334578055646,-0.0030380291343621857,-0.9998887994993573,1.0,0.0,0.0,0.0,1.0,0.0,0.0,0.0,1.0,0.0019371944945305586,-0.000653315335512161,0.0015209275297820568,1.2184696791468346e-07,0.0,0.0,0.0,1.2184696791468346e-07,0.0,0.0,0.0,1.2184696791468346e-07,0.19711242616176605,0.22846268117427945,9.787442207336426,8.999999999999999e-08,0.0,0.0,0.0,8.999999999999999e-08,0.0,0.0,0.0,8.999999999999999e-08
1758875469393550832,60998,1758875469384596736,base_link,-0.01128362491223497,0.00926918961660434,-0.0030447726301239555,-0.9998887994993572,1.0,0.0,0.0,0.0,1.0,0.0,0.0,0.0,1.0,-9.745825082063675e-06,-0.0025967808905988927,0.0018021666910499337,1.2184696791468346e-07,0.0,0.0,0.0,1.2184696791468346e-07,0.0,0.0,0.0,1.2184696791468346e-07,0.16999492049217224,0.16757048666477323,9.793110847473145,8.999999999999999e-08,0.0,0.0,0.0,8.999999999999999e-08,0.0,0.0,0.0,8.999999999999999e-08
1758875469399618640,60999,1758875469395596736,base_link,-0.01129124781186906,0.009274741558396953,-0.0030403472110302936,-0.9998886730588117,1.0,0.0,0.0,0.0,1.0,0.0,0.0,0.0,1.0,0.003349598031491041,-0.0011576751712709665,-0.00024925370234996064,1.2184696791468346e-07,0.0,0.0,0.0,1.2184696791468346e-07,0.0,0.0,0.0,1.2184696791468346e-07,0.178923562169075,0.21069367229938626,9.807831764221191,8.999999999999999e-08,0.0,0.0,0.0,8.999999999999999e-08,0.0,0.0,0.0,8.999999999999999e-08
1758875469403704080,61000,1758875469399596736,base_link,-0.011284908827071347,0.009266334414571918,-0.0030440561336992676,-0.9998888416462057,1.0,0.0,0.0,0.0,1.0,0.0,0.0,0.0,1.0,-0.0006844939198344946,0.0013666562736034393,-0.00018661411013454215,1.2184696791468346e-07,0.0,0.0,0.0,1.2184696791468346e-07,0.0,0.0,0.0,1.2184696791468346e-07,0.18741342425346375,0.2583156228065503,9.823513984680176,8.999999999999999e-08,0.0,0.0,0.0,8.999999999999999e-08,0.0,0.0,0.0,8.999999999999999e-08
1758875469417792496,61001,1758875469410596736,base_link,-0.01129294389324937,0.009277950316512096,-0.003049788105096715,-0.9998885887651147,1.0,0.0,0.0,0.0,1.0,0.0,0.0,0.0,1.0,-0.00011059548705816269,-0.0015037965495139358,0.0014111194759607317,1.2184696791468346e-07,0.0,0.0,0.0,1.2184696791468346e-07,0.0,0.0,0.0,1.2184696791468346e-07,0.16941601037979126,0.20346681773662686,9.81796932220459,8.999999999999999e-08,0.0,0.0,0.0,8.999999999999999e-08,0.0,0.0,0.0,8.999999999999999e-08
1758875469433597712,61002,1758875469429596736,base_link,-0.011280840256782965,0.009256830382550773,-0.003050378160975927,-0.9998889259399028,1.0,0.0,0.0,0.0,1.0,0.0,0.0,0.0,1.0,0.00046140910126268864,0.002232520142570138,0.000964696402661502,1.2184696791468346e-07,0.0,0.0,0.0,1.2184696791468346e-07,0.0,0.0,0.0,1.2184696791468346e-07,0.21407689154148102,0.2619510889053357,9.817920684814453,8.999999999999999e-08,0.0,0.0,0.0,8.999999999999999e-08,0.0,0.0,0.0,8.999999999999999e-08
1758875469444869392,61003,1758875469438596736,base_link,-0.011273120139515884,0.009260558403010464,-0.003038324162301764,-0.9998890102335998,1.0,0.0,0.0,0.0,1.0,0.0,0.0,0.0,1.0,-0.0018338717054575682,-0.0026429810095578436,-0.001979095861315727,1.2184696791468346e-07,0.0,0.0,0.0,1.2184696791468346e-07,0.0,0.0,0.0,1.2184696791468346e-07,0.19004377722740173,0.23562121391296506,9.80643367767334,8.999999999999999e-08,0.0,0.0,0.0,8.999999999999999e-08,0.0,0.0,0.0,8.999999999999999e-08
1758875469453570640,61004,1758875469443596736,base_link,-0.011273944801876006,0.009269170683449734,-0.0030351631486634344,-0.9998889680867513,1.0,0.0,0.0,0.0,1.0,0.0,0.0,0.0,1.0,0.002145939040929079,-0.00046574720181524754,-0.00011662114411592478,1.2184696791468346e-07,0.0,0.0,0.0,1.2184696791468346e-07,0.0,0.0,0.0,1.2184696791468346e-07,0.15361995995044708,0.2180814892053616,9.827101707458496,8.999999999999999e-08,0.0,0.0,0.0,8.999999999999999e-08,0.0,0.0,0.0,8.999999999999999e-08
1758875469464614064,61005,1758875469458595200,base_link,-0.011275612977432788,0.00927290915830349,-0.0030451940986090105,-0.9998887994993573,1.0,0.0,0.0,0.0,1.0,0.0,0.0,0.0,1.0,-0.002361632650718093,-0.00270690000616014,-0.0014219036092981692,1.2184696791468346e-07,0.0,0.0,0.0,1.2184696791468346e-07,0.0,0.0,0.0,1.2184696791468346e-07,0.16397465765476227,0.21514098346233487,9.789581298828125,8.999999999999999e-08,0.0,0.0,0.0,8.999999999999999e-08,0.0,0.0,0.0,8.999999999999999e-08
1758875469473528464,61006,1758875469468595200,base_link,-0.011268480775775209,0.009286790124078877,-0.003035331736057478,-0.9998887994993573,1.0,0.0,0.0,0.0,1.0,0.0,0.0,0.0,1.0,-0.0015385898295789957,-0.002078206045553088,-0.0009302013786509631,1.2184696791468346e-07,0.0,0.0,0.0,1.2184696791468346e-07,0.0,0.0,0.0,1.2184696791468346e-07,0.18229153752326965,0.26839280128479126,9.818899154663086,8.999999999999999e-08,0.0,0.0,0.0,8.999999999999999e-08,0.0,0.0,0.0,8.999999999999999e-08
1758875469479398832,61007,1758875469473595200,base_link,-0.011272366764598751,0.009275018723316748,-0.003037944840665164,-0.9998888837930543,1.0,0.0,0.0,0.0,1.0,0.0,0.0,0.0,1.0,-0.0007147584110498428,0.00011508772149682068,0.001856375252828002,1.2184696791468346e-07,0.0,0.0,0.0,1.2184696791468346e-07,0.0,0.0,0.0,1.2184696791468346e-07,0.1357584148645401,0.2603600025177014,9.800749778747559,8.999999999999999e-08,0.0,0.0,0.0,8.999999999999999e-08,0.0,0.0,0.0,8.999999999999999e-08
1758875469494787120,61008,1758875469488595200,base_link,-0.011265237444073394,0.009280686075034385,-0.0030227298283527822,-0.9998889259399028,1.0,0.0,0.0,0.0,1.0,0.0,0.0,0.0,1.0,-0.0003327038139104843,-0.00046288594603538546,-0.002492156345397234,1.2184696791468346e-07,0.0,0.0,0.0,1.2184696791468346e-07,0.0,0.0,0.0,1.2184696791468346e-07,0.19740232825279236,0.21187075972557187,9.815346717834473,8.999999999999999e-08,0.0,0.0,0.0,8.999999999999999e-08,0.0,0.0,0.0,8.999999999999999e-08
1758875469500348784,61009,1758875469497595200,base_link,-0.0112631105922668,0.009267159323886229,-0.003040726532666894,-0.9998889680867513,1.0,0.0,0.0,0.0,1.0,0.0,0.0,0.0,1.0,-0.0010295461397618055,0.002496275119483471,-0.00015325634740293056,1.2184696791468346e-07,0.0,0.0,0.0,1.2184696791468346e-07,0.0,0.0,0.0,1.2184696791468346e-07,0.18778130412101746,0.2634028196334851,9.798023223876953,8.999999999999999e-08,0.0,0.0,0.0,8.999999999999999e-08,0.0,0.0,0.0,8.999999999999999e-08
1758875469503493744,61010,1758875469498595200,base_link,-0.011258267326682841,0.009264312106705967,-0.00303179140078255,-0.9998891366741454,1.0,0.0,0.0,0.0,1.0,0.0,0.0,0.0,1.0,-0.0011996577959507704,0.0014656984712928534,-0.00022031227126717586,1.2184696791468346e-07,0.0,0.0,0.0,1.2184696791468346e-07,0.0,0.0,0.0,1.2184696791468346e-07,0.20215678215026855,0.25410676002502564,9.836840629577637,8.999999999999999e-08,0.0,0.0,0.0,8.999999999999999e-08,0.0,0.0,0.0,8.999999999999999e-08
1758875469510529328,61011,1758875469503595200,base_link,-0.011268142283898107,0.009265122692677229,-0.003032802925146871,-0.9998890523804482,1.0,0.0,0.0,0.0,1.0,0.0,0.0,0.0,1.0,0.0029546977020800114,-0.0003430084325373172,0.0005389628931879997,1.2184696791468346e-07,0.0,0.0,0.0,1.2184696791468346e-07,0.0,0.0,0.0,1.2184696791468346e-07,0.1815497875213623,0.15038374066352964,9.792597770690918,8.999999999999999e-08,0.0,0.0,0.0,8.999999999999999e-08,0.0,0.0,0.0,8.999999999999999e-08
1758875469520492112,61012,1758875469513595200,base_link,-0.011292509994736672,0.009257969335277332,-0.003028208918659109,-0.9998888416462057,1.0,0.0,0.0,0.0,1.0,0.0,0.0,0.0,1.0,0.005838009528815746,1.2500677257776963e-06,0.0005746535025537014,1.2184696791468346e-07,0.0,0.0,0.0,1.2184696791468346e-07,0.0,0.0,0.0,1.2184696791468346e-07,0.18468323349952698,0.23379430174827695,9.799355506896973,8.999999999999999e-08,0.0,0.0,0.0,8.999999999999999e-08,0.0,0.0,0.0,8.999999999999999e-08
1758875469525532176,61013,1758875469518595200,base_link,-0.011302606552178874,0.009263856970132886,-0.003055857251282308,-0.9998885887651147,1.0,0.0,0.0,0.0,1.0,0.0,0.0,0.0,1.0,0.004253201652318239,0.0018061636947095398,0.0031013959087431426,1.2184696791468346e-07,0.0,0.0,0.0,1.2184696791468346e-07,0.0,0.0,0.0,1.2184696791468346e-07,0.17971563339233398,0.2582284212112439,9.851513862609863,8.999999999999999e-08,0.0,0.0,0.0,8.999999999999999e-08,0.0,0.0,0.0,8.999999999999999e-08
1758875469533603696,61014,1758875469528595200,base_link,-0.011317049914964078,0.009255090261006495,-0.0030396728614540606,-0.9998885887651147,1.0,0.0,0.0,0.0,1.0,0.0,0.0,0.0,1.0,0.002909331349655986,0.00014747050590813157,-0.00021846778690814975,1.2184696791468346e-07,0.0,0.0,0.0,1.2184696791468346e-07,0.0,0.0,0.0,1.2184696791468346e-07,0.16401046514511108,0.1944662481546414,9.8031005859375,8.999999999999999e-08,0.0,0.0,0.0,8.999999999999999e-08,0.0,0.0,0.0,8.999999999999999e-08
1758875469553546128,61015,1758875469547595200,base_link,-0.011322484141925888,0.009274034034641188,-0.0030540449367963307,-0.9998882094434781,1.0,0.0,0.0,0.0,1.0,0.0,0.0,0.0,1.0,-0.0006955128628760576,-0.0022969897836446758,0.0018913645762950184,1.2184696791468346e-07,0.0,0.0,0.0,1.2184696791468346e-07,0.0,0.0,0.0,1.2184696791468346e-07,0.1646340787410736,0.2572925686836255,9.783529281616211,8.999999999999999e-08,0.0,0.0,0.0,8.999999999999999e-08,0.0,0.0,0.0,8.999999999999999e-08
1758875469563452432,61016,1758875469552593664,base_link,-0.011325291846435671,0.009271152573146509,-0.0030451940986090083,-0.9998882937371751,1.0,0.0,0.0,0.0,1.0,0.0,0.0,0.0,1.0,0.0008979437407106161,0.0008239357266575096,-0.0015886224573478103,1.2184696791468346e-07,0.0,0.0,0.0,1.2184696791468346e-07,0.0,0.0,0.0,1.2184696791468346e-07,0.16910295188426971,0.21789947152137876,9.792566299438477,8.999999999999999e-08,0.0,0.0,0.0,8.999999999999999e-08,0.0,0.0,0.0,8.999999999999999e-08
